File: data_dir/600_A_immertest4/600_A_05_OCV_C04.mpt
EC-Lab ASCII FILE
Nb header lines : 48

Open Circuit Voltage

Run on channel : 4 (SN 13148)
User :
Electrode connection : standard
Potential control : Ewe
Ewe ctrl range : min = -1.00 V, max = 1.00 V
Ewe,I filtering : 5 Hz
Safety Limits :
	Do not start on E overload
Channel : Floating
Acquisition started on : 07/01/2024 16:51:31.465
Loaded Setting File :  C:\Users\mAtsuhitA\Desktop\Oyafuso\20240624_???????4\1540_A.mps
Saved on :
	File : 600_A_05_OCV_C04.mpr
	Directory : C:\Users\mAtsuhitA\Desktop\Oyafuso\20240624_???????4\600_A\
	Host : 192.109.209.100
Device : VSP-300 (SN 0960)
Address : USB
EC-Lab for windows v11.50 (software)
Internet server v11.50 (firmware)
Command interpretor v11.50 (firmware)
Electrode material :
Initial state :
Electrolyte :
Comments :
Cable : standard
Electrode surface area : 0.001 cm2
Characteristic mass : 0.001 g
Equivalent Weight : 0.000 g/eq.
Density : 0.000 g/cm3
Volume (V) : 0.001 cm3
Text export
   Mode : Standard
   Time format : Elapsed
Cycle Definition : Charge/Discharge alternance
tR (h:m:s)          5:00:0.0000
dER/dt (mV/h)       0.0
record              Ewe
dER (mV)            10.00
dtR (s)             30.0000
E range min (V)     -1.000
E range max (V)     1.000

mode	error	time/s	Ewe/V
3	0	243101	-0.00170115
3	0	243101	-0.0117149
3	0	243101	-0.0217459
3	0	243101	-0.0317597
3	0	243101	-0.0417907
3	0	243101	-0.0518388
3	0	243101	-0.0618554
3	0	243102	-0.07187
3	0	243102	-0.0818809
3	0	243102	-0.0919032
3	0	243103	-0.101918
3	0	243103	-0.111932
3	0	243103	-0.121943
3	0	243104	-0.131946
3	0	243105	-0.14195
3	0	243105	-0.151961
3	0	243107	-0.161964
3	0	243109	-0.171971
3	0	243114	-0.181978
3	0	243144	-0.191034
3	0	243174	-0.19468
3	0	243204	-0.197093
3	0	243234	-0.199296
3	0	243264	-0.200961
3	0	243294	-0.20227
3	0	243324	-0.20395
3	0	243354	-0.204928
3	0	243384	-0.206096
3	0	243414	-0.207138
3	0	243444	-0.207952
3	0	243474	-0.208662
3	0	243504	-0.209437
3	0	243534	-0.210162
3	0	243564	-0.210735
3	0	243594	-0.211407
3	0	243624	-0.212052
3	0	243654	-0.212655
3	0	243684	-0.21319
3	0	243714	-0.213835
3	0	243744	-0.214251
3	0	243774	-0.214698
3	0	243804	-0.21521
3	0	243834	-0.215618
3	0	243864	-0.216229
3	0	243894	-0.216558
3	0	243924	-0.217065
3	0	243954	-0.217352
3	0	243984	-0.217779
3	0	244014	-0.217963
3	0	244044	-0.218371
3	0	244074	-0.218711
3	0	244104	-0.219028
3	0	244134	-0.21939
3	0	244164	-0.219738
3	0	244194	-0.22015
3	0	244224	-0.220322
3	0	244254	-0.220612
3	0	244284	-0.220883
3	0	244314	-0.221139
3	0	244344	-0.221353
3	0	244374	-0.221632
3	0	244404	-0.221842
3	0	244434	-0.221884
3	0	244464	-0.222334
3	0	244494	-0.222621
3	0	244524	-0.222678
3	0	244554	-0.223105
3	0	244584	-0.223426
3	0	244614	-0.223518
3	0	244644	-0.223873
3	0	244674	-0.224022
3	0	244704	-0.224113
3	0	244734	-0.224407
3	0	244764	-0.224789
3	0	244794	-0.225014
3	0	244824	-0.22514
3	0	244854	-0.225247
3	0	244884	-0.225644
3	0	244914	-0.225992
3	0	244944	-0.225904
3	0	244974	-0.226175
3	0	245004	-0.226694
3	0	245034	-0.226901
3	0	245064	-0.227091
3	0	245094	-0.227229
3	0	245124	-0.227282
3	0	245154	-0.22755
3	0	245184	-0.227844
3	0	245214	-0.228012
3	0	245244	-0.228038
3	0	245274	-0.228225
3	0	245304	-0.228222
3	0	245334	-0.228428
3	0	245364	-0.2285
3	0	245394	-0.228638
3	0	245424	-0.228832
3	0	245454	-0.229062
3	0	245484	-0.229256
3	0	245514	-0.229291
3	0	245544	-0.229428
3	0	245574	-0.229539
3	0	245604	-0.229672
3	0	245634	-0.229955
3	0	245664	-0.229852
3	0	245694	-0.230234
3	0	245724	-0.23018
3	0	245754	-0.230283
3	0	245784	-0.230509
3	0	245814	-0.230696
3	0	245844	-0.230917
3	0	245874	-0.230925
3	0	245904	-0.230971
3	0	245934	-0.231116
3	0	245964	-0.231291
3	0	245994	-0.23149
3	0	246024	-0.231494
3	0	246054	-0.231673
3	0	246084	-0.231776
3	0	246114	-0.231833
3	0	246144	-0.231917
3	0	246174	-0.232036
3	0	246204	-0.232173
3	0	246234	-0.232307
3	0	246264	-0.23225
3	0	246294	-0.232261
3	0	246324	-0.23244
3	0	246354	-0.232349
3	0	246384	-0.232513
3	0	246414	-0.232582
3	0	246444	-0.232689
3	0	246474	-0.232754
3	0	246504	-0.232956
3	0	246534	-0.233059
3	0	246564	-0.233258
3	0	246594	-0.233376
3	0	246624	-0.233296
3	0	246654	-0.233475
3	0	246684	-0.233582
3	0	246714	-0.233681
3	0	246744	-0.233907
3	0	246774	-0.233956
3	0	246804	-0.234124
3	0	246834	-0.233979
3	0	246864	-0.23417
3	0	246894	-0.23425
3	0	246924	-0.234269
3	0	246954	-0.234369
3	0	246984	-0.234525
3	0	247014	-0.234705
3	0	247044	-0.23475
3	0	247074	-0.234892
3	0	247104	-0.235048
3	0	247134	-0.235063
3	0	247164	-0.235044
3	0	247194	-0.235216
3	0	247224	-0.235209
3	0	247254	-0.235251
3	0	247284	-0.235522
3	0	247314	-0.235598
3	0	247344	-0.235606
3	0	247374	-0.235678
3	0	247404	-0.235861
3	0	247434	-0.235751
3	0	247464	-0.235835
3	0	247494	-0.235991
3	0	247524	-0.236106
3	0	247554	-0.23611
3	0	247584	-0.236194
3	0	247614	-0.236159
3	0	247644	-0.236285
3	0	247674	-0.23648
3	0	247704	-0.236621
3	0	247734	-0.236583
3	0	247764	-0.236625
3	0	247794	-0.236736
3	0	247824	-0.236908
3	0	247854	-0.236782
3	0	247884	-0.23685
3	0	247914	-0.236858
3	0	247944	-0.2369
3	0	247974	-0.237095
3	0	248004	-0.237129
3	0	248034	-0.23724
3	0	248064	-0.237236
3	0	248094	-0.237312
3	0	248124	-0.237461
3	0	248154	-0.237713
3	0	248184	-0.237702
3	0	248214	-0.237622
3	0	248244	-0.237713
3	0	248274	-0.237801
3	0	248304	-0.237847
3	0	248334	-0.23782
3	0	248364	-0.237904
3	0	248394	-0.237858
3	0	248424	-0.238019
3	0	248454	-0.237996
3	0	248484	-0.238064
3	0	248514	-0.23819
3	0	248544	-0.238213
3	0	248574	-0.238106
3	0	248604	-0.238358
3	0	248634	-0.238458
3	0	248664	-0.238576
3	0	248694	-0.238687
3	0	248724	-0.238629
3	0	248754	-0.23858
3	0	248784	-0.238603
3	0	248814	-0.238889
3	0	248844	-0.238725
3	0	248874	-0.238832
3	0	248904	-0.238954
3	0	248934	-0.239004
3	0	248964	-0.238908
3	0	248994	-0.239011
3	0	249024	-0.239015
3	0	249054	-0.239114
3	0	249084	-0.239233
3	0	249114	-0.23934
3	0	249144	-0.239301
3	0	249174	-0.239401
3	0	249204	-0.239435
3	0	249234	-0.239424
3	0	249264	-0.239557
3	0	249294	-0.239447
3	0	249324	-0.239595
3	0	249354	-0.239645
3	0	249384	-0.239588
3	0	249414	-0.239553
3	0	249444	-0.239626
3	0	249474	-0.239687
3	0	249504	-0.239702
3	0	249534	-0.239733
3	0	249564	-0.239874
3	0	249594	-0.239924
3	0	249624	-0.239996
3	0	249654	-0.240027
3	0	249684	-0.240099
3	0	249714	-0.240076
3	0	249744	-0.240126
3	0	249774	-0.240275
3	0	249804	-0.240222
3	0	249834	-0.240233
3	0	249864	-0.240317
3	0	249894	-0.240496
3	0	249924	-0.2405
3	0	249954	-0.2405
3	0	249984	-0.240496
3	0	250014	-0.240519
3	0	250044	-0.240993
3	0	250074	-0.240978
3	0	250104	-0.240825
3	0	250134	-0.240905
3	0	250164	-0.241111
3	0	250194	-0.241146
3	0	250224	-0.241172
3	0	250254	-0.241069
3	0	250284	-0.241012
3	0	250314	-0.241111
3	0	250344	-0.241222
3	0	250374	-0.241252
3	0	250404	-0.241256
3	0	250434	-0.241184
3	0	250464	-0.241382
3	0	250494	-0.241417
3	0	250524	-0.241524
3	0	250554	-0.241661
3	0	250584	-0.241745
3	0	250614	-0.241665
3	0	250644	-0.241749
3	0	250674	-0.241737
3	0	250704	-0.244883
3	0	250734	-0.243184
3	0	250764	-0.243196
3	0	250794	-0.243116
3	0	250824	-0.24357
3	0	250854	-0.243314
3	0	250884	-0.243242
3	0	250914	-0.24328
3	0	250944	-0.243299
3	0	250974	-0.243242
3	0	251004	-0.243154
3	0	251034	-0.243253
3	0	251064	-0.243184
3	0	251094	-0.243108
3	0	251124	-0.243219
3	0	251154	-0.243039
3	0	251184	-0.243119
3	0	251214	-0.243123
3	0	251244	-0.243272
3	0	251274	-0.243211
3	0	251304	-0.243089
3	0	251334	-0.2432
3	0	251364	-0.243161
3	0	251394	-0.243207
3	0	251424	-0.243322
3	0	251454	-0.243299
3	0	251484	-0.243391
3	0	251514	-0.24349
3	0	251544	-0.243245
3	0	251574	-0.243295
3	0	251604	-0.243429
3	0	251634	-0.243371
3	0	251664	-0.24336
3	0	251694	-0.243093
3	0	251724	-0.243139
3	0	251754	-0.243093
3	0	251784	-0.243184
3	0	251814	-0.243219
3	0	251844	-0.243097
3	0	251874	-0.243062
3	0	251904	-0.243001
3	0	251934	-0.243219
3	0	251964	-0.242986
3	0	251994	-0.243368
3	0	252024	-0.243043
3	0	252054	-0.243047
3	0	252084	-0.242986
3	0	252114	-0.242982
3	0	252144	-0.243039
3	0	252174	-0.243051
3	0	252204	-0.243005
3	0	252234	-0.243184
3	0	252264	-0.243097
3	0	252294	-0.243116
3	0	252324	-0.242971
3	0	252354	-0.242913
3	0	252384	-0.243177
3	0	252414	-0.243478
3	0	252444	-0.243471
3	0	252474	-0.243391
3	0	252504	-0.243478
3	0	252534	-0.243452
3	0	252564	-0.243509
3	0	252594	-0.243539
3	0	252624	-0.243329
3	0	252654	-0.243513
3	0	252684	-0.243486
3	0	252714	-0.243547
3	0	252744	-0.243734
3	0	252774	-0.243727
3	0	252804	-0.243746
3	0	252834	-0.243585
3	0	252864	-0.243524
3	0	252894	-0.24352
3	0	252924	-0.243811
3	0	252954	-0.243707
3	0	252984	-0.243524
3	0	253014	-0.243604
3	0	253044	-0.243795
3	0	253074	-0.243784
3	0	253104	-0.243772
3	0	253134	-0.243727
3	0	253164	-0.243749
3	0	253194	-0.24383
3	0	253224	-0.243814
3	0	253254	-0.243925
3	0	253284	-0.243837
3	0	253314	-0.243963
3	0	253344	-0.243891
3	0	253374	-0.244036
3	0	253404	-0.244032
3	0	253434	-0.244032
3	0	253464	-0.244169
3	0	253494	-0.244032
3	0	253524	-0.244005
3	0	253554	-0.243952
3	0	253584	-0.244051
3	0	253614	-0.244089
3	0	253644	-0.244032
3	0	253674	-0.244078
3	0	253704	-0.244089
3	0	253734	-0.244124
3	0	253764	-0.244246
3	0	253794	-0.244139
3	0	253824	-0.244284
3	0	253854	-0.244085
3	0	253884	-0.244146
3	0	253914	-0.244055
3	0	253944	-0.243982
3	0	253974	-0.244085
3	0	254004	-0.244059
3	0	254034	-0.244292
3	0	254064	-0.244406
3	0	254094	-0.24446
3	0	254124	-0.244402
3	0	254154	-0.244566
3	0	254184	-0.244574
3	0	254214	-0.244582
3	0	254244	-0.244544
3	0	254274	-0.244658
3	0	254304	-0.244845
3	0	254334	-0.244818
3	0	254364	-0.24483
3	0	254394	-0.244929
3	0	254424	-0.244834
3	0	254454	-0.244803
3	0	254484	-0.244815
3	0	254514	-0.244643
3	0	254544	-0.244822
3	0	254574	-0.244727
3	0	254604	-0.24488
3	0	254634	-0.244742
3	0	254664	-0.244872
3	0	254694	-0.244712
3	0	254724	-0.244734
3	0	254754	-0.244941
3	0	254784	-0.244799
3	0	254814	-0.244757
3	0	254844	-0.244673
3	0	254874	-0.244799
3	0	254904	-0.244734
3	0	254934	-0.244807
3	0	254964	-0.24483
3	0	254994	-0.244811
3	0	255024	-0.244818
3	0	255054	-0.244944
3	0	255084	-0.244967
3	0	255114	-0.244922
3	0	255144	-0.245059
3	0	255174	-0.24504
3	0	255204	-0.244922
3	0	255234	-0.245109
3	0	255264	-0.245021
3	0	255294	-0.24507
3	0	255324	-0.245028
3	0	255354	-0.245242
3	0	255384	-0.245151
3	0	255414	-0.245128
3	0	255444	-0.245216
3	0	255474	-0.245353
3	0	255504	-0.245238
3	0	255534	-0.245261
3	0	255564	-0.245292
3	0	255594	-0.245326
3	0	255624	-0.245376
3	0	255654	-0.245658
3	0	255684	-0.245548
3	0	255714	-0.245708
3	0	255744	-0.24559
3	0	255774	-0.245708
3	0	255804	-0.245739
3	0	255834	-0.2457
3	0	255864	-0.245773
3	0	255894	-0.245876
3	0	255924	-0.245991
3	0	255954	-0.245979
3	0	255984	-0.246036
3	0	256014	-0.246071
3	0	256044	-0.246201
3	0	256074	-0.246124
3	0	256104	-0.246197
3	0	256134	-0.246071
3	0	256164	-0.246208
3	0	256194	-0.246349
3	0	256224	-0.246208
3	0	256254	-0.246304
3	0	256284	-0.246357
3	0	256314	-0.246155
3	0	256344	-0.246208
3	0	256374	-0.246346
3	0	256404	-0.246327
3	0	256434	-0.246422
3	0	256464	-0.246288
3	0	256494	-0.246285
3	0	256524	-0.246304
3	0	256554	-0.246189
3	0	256584	-0.246239
3	0	256614	-0.246254
3	0	256644	-0.246346
3	0	256674	-0.246216
3	0	256704	-0.246456
3	0	256734	-0.246246
3	0	256764	-0.246445
3	0	256794	-0.246437
3	0	256824	-0.246395
3	0	256854	-0.246384
3	0	256884	-0.246552
3	0	256914	-0.246525
3	0	256944	-0.246514
3	0	256974	-0.246609
3	0	257004	-0.246537
3	0	257034	-0.246525
3	0	257064	-0.246666
3	0	257094	-0.24651
3	0	257124	-0.246617
3	0	257154	-0.246808
3	0	257184	-0.24664
3	0	257214	-0.246853
3	0	257244	-0.246995
3	0	257274	-0.246754
3	0	257304	-0.246685
3	0	257334	-0.246685
3	0	257364	-0.247174
3	0	257394	-0.247083
3	0	257424	-0.24701
3	0	257454	-0.246918
3	0	257484	-0.247056
3	0	257514	-0.247231
3	0	257544	-0.24722
3	0	257574	-0.247231
3	0	257604	-0.247094
3	0	257634	-0.247182
3	0	257664	-0.247205
3	0	257694	-0.247105
3	0	257724	-0.247189
3	0	257754	-0.247098
3	0	257784	-0.247174
3	0	257814	-0.247102
3	0	257844	-0.247167
3	0	257874	-0.247094
3	0	257904	-0.247163
3	0	257934	-0.247174
3	0	257964	-0.247228
3	0	257994	-0.247205
3	0	258024	-0.247262
3	0	258054	-0.247304
3	0	258084	-0.247273
3	0	258114	-0.247411
3	0	258144	-0.247533
3	0	258174	-0.247609
3	0	258204	-0.247682
3	0	258234	-0.247911
3	0	258264	-0.247938
3	0	258294	-0.247869
3	0	258324	-0.248029
3	0	258354	-0.248117
3	0	258384	-0.248045
3	0	258414	-0.248102
3	0	258444	-0.24822
3	0	258474	-0.24835
3	0	258504	-0.248377
3	0	258534	-0.248442
3	0	258564	-0.24851
3	0	258594	-0.248495
3	0	258624	-0.24856
3	0	258654	-0.248392
3	0	258684	-0.248373
3	0	258714	-0.248392
3	0	258744	-0.248526
3	0	258774	-0.248526
3	0	258804	-0.248572
3	0	258834	-0.248457
3	0	258864	-0.248507
3	0	258894	-0.24848
3	0	258924	-0.248686
3	0	258954	-0.248617
3	0	258984	-0.248495
3	0	259014	-0.248545
3	0	259044	-0.248709
3	0	259074	-0.24853
3	0	259104	-0.248575
3	0	259134	-0.248583
3	0	259164	-0.24856
3	0	259194	-0.248602
3	0	259224	-0.248782
3	0	259254	-0.248682
3	0	259284	-0.248579
3	0	259314	-0.248495
3	0	259344	-0.248598
3	0	259374	-0.24872
3	0	259404	-0.248759
3	0	259434	-0.2489
3	0	259464	-0.248866
3	0	259494	-0.248877
3	0	259524	-0.249034
3	0	259554	-0.24906
3	0	259584	-0.249106
3	0	259614	-0.249056
3	0	259644	-0.249228
3	0	259674	-0.249274
3	0	259704	-0.249328
3	0	259734	-0.249308
3	0	259764	-0.249259
3	0	259794	-0.249373
3	0	259824	-0.249419
3	0	259854	-0.249312
3	0	259884	-0.249389
3	0	259914	-0.249515
3	0	259944	-0.249335
3	0	259974	-0.249339
3	0	260004	-0.249538
3	0	260034	-0.24974
3	0	260064	-0.249671
3	0	260094	-0.249763
3	0	260124	-0.249812
3	0	260154	-0.249996
3	0	260184	-0.249935
3	0	260214	-0.249812
3	0	260244	-0.249832
3	0	260274	-0.249839
3	0	260304	-0.249874
3	0	260334	-0.249885
3	0	260364	-0.249969
3	0	260394	-0.249786
3	0	260424	-0.249782
3	0	260454	-0.249809
3	0	260484	-0.249713
3	0	260514	-0.249614
3	0	260544	-0.249587
3	0	260574	-0.249622
3	0	260604	-0.249599
3	0	260634	-0.249679
3	0	260664	-0.249671
3	0	260694	-0.249732
3	0	260724	-0.249599
3	0	260754	-0.249576
3	0	260784	-0.249644
3	0	260814	-0.249606
3	0	260844	-0.24953
3	0	260874	-0.24966
3	0	260904	-0.249984
3	0	260934	-0.249816
3	0	260964	-0.249832
3	0	260994	-0.249774
3	0	261024	-0.24966
3	0	261054	-0.249725
3	0	261084	-0.249759
3	0	261101	-0.249614