File: data_dir/600_A_immertest4/600_A_06_CV_C04.mpt
EC-Lab ASCII FILE
Nb header lines : 62

Cyclic Voltammetry

Run on channel : 4 (SN 13148)
User :
Electrode connection : standard
Potential control : Ewe
Ewe ctrl range : min = -1.00 V, max = 1.00 V
Ewe,I filtering : 5 Hz
Safety Limits :
	Do not start on E overload
Channel : Floating
Acquisition started on : 07/01/2024 16:51:31.465
Loaded Setting File :  C:\Users\mAtsuhitA\Desktop\Oyafuso\20240624_???????4\1540_A.mps
Saved on :
	File : 600_A_06_CV_C04.mpr
	Directory : C:\Users\mAtsuhitA\Desktop\Oyafuso\20240624_???????4\600_A\
	Host : 192.109.209.100
Device : VSP-300 (SN 0960)
Address : USB
EC-Lab for windows v11.50 (software)
Internet server v11.50 (firmware)
Command interpretor v11.50 (firmware)
Electrode material :
Initial state :
Electrolyte :
Comments :
Cable : standard
Electrode surface area : 0.001 cm2
Characteristic mass : 0.001 g
Equivalent Weight : 0.000 g/eq.
Density : 0.000 g/cm3
Volume (V) : 0.001 cm3
Text export
   Mode : Standard
   Time format : Elapsed
Cycle Definition : Charge/Discharge alternance
Ei (V)              0.000
vs.                 Eoc
dE/dt               10.000
dE/dt unit          mV/s
E1 (V)              -0.050
vs.                 Eoc
Step percent        50
N                   10
E range min (V)     -1.000
E range max (V)     1.000
I Range             Auto
I Range min         Unset
I Range max         Unset
I Range init        Unset
Bandwidth           8
E2 (V)              0.000
vs.                 Ref
nc cycles           2
Reverse Scan        1
Ef (V)              0.000
vs.                 Eoc

mode	ox/red	error	control changes	counter inc.	time/s	control/V	Ewe/V	<I>/mA	cycle number	(Q-Qo)/C	I Range	step time/s	P/W
2	0	0	1	0	261101	-0.249599	-0.249469	-4.28126e-07	1	0.0000000E+000	45	261101	1.06804e-10
2	0	0	1	0	261101	-0.25637	-0.255524	-8.66621e-05	1	-2.37412e-08	44	261101	2.21443e-08
2	0	0	1	0	261102	-0.259369	-0.258524	-0.000106098	1	-5.26739e-08	44	261102	2.74289e-08
2	0	0	1	0	261102	-0.266365	-0.265533	-0.000150127	1	-1.37301e-07	43	261102	3.98638e-08
2	0	0	1	0	261103	-0.269363	-0.268517	-0.000168182	1	-1.85046e-07	43	261103	4.51597e-08
2	0	0	1	0	261103	-0.272361	-0.271509	-0.000186385	1	-2.38142e-07	43	261103	5.06053e-08
2	0	0	1	0	261103	-0.27536	-0.274513	-0.000203731	1	-2.96629e-07	43	261103	5.59268e-08
2	0	0	1	0	261104	-0.278358	-0.277522	-0.00022163	1	-3.60474e-07	43	261104	6.15073e-08
2	0	0	1	0	261104	-0.281357	-0.280514	-0.00023939	1	-4.29619e-07	43	261104	6.71521e-08
2	0	0	1	0	261104	-0.284355	-0.283502	-0.000256985	1	-5.04032e-07	43	261104	7.28558e-08
2	0	0	1	0	261105	-0.287353	-0.28649	-0.000274319	1	-5.83688e-07	43	261105	7.85896e-08
2	0	0	1	0	261105	-0.290352	-0.289512	-0.000291887	1	-6.68598e-07	43	261105	8.45049e-08
2	0	0	1	0	261105	-0.29335	-0.292492	-0.000309188	1	-7.58745e-07	43	261105	9.04351e-08
2	0	0	1	0	261105	-0.296349	-0.295506	-0.000326635	1	-8.54063e-07	43	261105	9.65226e-08
2	0	0	1	0	261106	-0.299322	-0.298464	-0.000343793	1	-9.53736e-07	43	261106	1.0261e-07
2	0	0	1	0	261106	-0.297298	-0.298043	-0.000260876	1	-1.0327e-06	43	261106	7.77521e-08
2	0	0	1	0	261106	-0.2943	-0.295038	-0.000229758	1	-1.10583e-06	43	261106	6.77873e-08
2	0	0	1	0	261107	-0.291301	-0.292081	-0.000205854	1	-1.17102e-06	43	261107	6.01259e-08
2	0	0	1	0	261107	-0.288303	-0.289045	-0.000184896	1	-1.22951e-06	43	261107	5.34431e-08
2	0	0	1	0	261107	-0.285304	-0.286082	-0.000164451	1	-1.28183e-06	43	261107	4.70465e-08
2	0	0	1	0	261107	-0.282306	-0.283071	-0.000145224	1	-1.32827e-06	43	261107	4.11087e-08
2	0	0	1	0	261108	-0.279308	-0.280058	-0.000126526	1	-1.36896e-06	43	261108	3.54346e-08
2	0	0	1	0	261108	-0.276309	-0.27709	-0.000108265	1	-1.4041e-06	43	261108	2.99991e-08
2	0	0	1	0	261108	-0.273311	-0.274097	-8.98783e-05	1	-1.43376e-06	43	261108	2.46354e-08
2	0	0	1	0	261109	-0.270313	-0.271082	-7.18438e-05	1	-1.45797e-06	43	261109	1.94755e-08
2	0	0	1	0	261109	-0.267314	-0.268074	-5.43736e-05	1	-1.47682e-06	43	261109	1.45762e-08
2	0	0	1	0	261110	-0.260318	-0.261103	-1.2373e-05	1	-1.50477e-06	44	261110	3.23063e-09
2	1	0	1	0	261111	-0.249323	-0.25008	5.29131e-05	1	-1.49207e-06	44	0.4497	-1.32325e-08
2	1	0	1	0	261111	-0.246326	-0.247092	7.0985e-05	1	-1.47348e-06	44	0.7496	-1.75398e-08
2	1	0	1	0	261111	-0.243327	-0.244082	8.85451e-05	1	-1.44956e-06	44	1.0494	-2.16122e-08
2	1	0	1	0	261112	-0.240329	-0.241071	0.000106659	1	-1.42027e-06	44	1.3492	-2.57125e-08
2	1	0	1	0	261112	-0.233332	-0.23408	0.000148649	1	-1.33574e-06	43	2.0488	-3.47958e-08
2	1	0	1	0	261113	-0.230334	-0.231088	0.000166935	1	-1.2884e-06	43	2.3486	-3.85768e-08
2	1	0	1	0	261113	-0.227336	-0.228087	0.000185368	1	-1.23558e-06	43	2.6485	-4.22801e-08
2	1	0	1	0	261113	-0.224337	-0.225083	0.00020314	1	-1.17735e-06	43	2.9484	-4.57235e-08
2	1	0	1	0	261114	-0.221339	-0.222105	0.000221589	1	-1.11366e-06	43	3.2482	-4.9216e-08
2	1	0	1	0	261114	-0.218341	-0.219073	0.000239957	1	-1.04447e-06	43	3.548	-5.25681e-08
2	1	0	1	0	261114	-0.215342	-0.216102	0.000258265	1	-9.69743e-07	43	3.8478	-5.58115e-08
2	1	0	1	0	261114	-0.212343	-0.213085	0.000277002	1	-8.89418e-07	43	4.1477	-5.90249e-08
2	1	0	1	0	261115	-0.209345	-0.210105	0.000295754	1	-8.03585e-07	43	4.4476	-6.21393e-08
2	1	0	1	0	261115	-0.206347	-0.207106	0.000314243	1	-7.12132e-07	43	4.7474	-6.50815e-08
2	1	0	1	0	261115	-0.203349	-0.204122	0.000332573	1	-6.15096e-07	43	5.0472	-6.78853e-08
2	1	0	1	0	261116	-0.20035	-0.201107	0.0003515	1	-5.12488e-07	43	5.347	-7.06892e-08
2	1	0	1	0	261116	-0.197352	-0.198117	0.000370663	1	-4.04203e-07	43	5.6468	-7.34346e-08
2	1	0	1	0	261116	-0.194354	-0.195088	0.000389601	1	-2.90105e-07	43	5.9468	-7.60065e-08
2	1	0	1	0	261117	-0.191355	-0.192101	0.00040856	1	-1.7046e-07	43	6.2466	-7.84849e-08
2	1	0	1	0	261117	-0.188357	-0.189109	0.000427858	1	-4.50631e-08	43	6.5464	-8.09119e-08
2	1	0	1	0	261117	-0.185358	-0.186117	0.000446963	1	8.60623e-08	43	6.8462	-8.31873e-08
2	1	0	1	0	261117	-0.18236	-0.183106	0.000465725	1	2.22915e-07	43	7.146	-8.52769e-08
2	1	0	1	0	261118	-0.179362	-0.180124	0.000485198	1	3.65636e-07	43	7.446	-8.73956e-08
2	1	0	1	0	261118	-0.176363	-0.177117	0.000504935	1	5.14047e-07	43	7.7458	-8.94324e-08
2	1	0	1	0	261118	-0.173365	-0.174116	0.000524277	1	6.68338e-07	43	8.0456	-9.1285e-08
2	1	0	1	0	261119	-0.170366	-0.171129	0.000544171	1	8.28535e-07	43	8.3454	-9.31232e-08
2	1	0	1	0	261119	-0.167368	-0.168116	0.000564147	1	9.94645e-07	43	8.6452	-9.48423e-08
2	1	0	1	0	261119	-0.16437	-0.165138	0.000583543	1	1.16675e-06	43	8.9451	-9.6365e-08
2	1	0	1	0	261120	-0.161371	-0.162132	0.000603418	1	1.34481e-06	43	9.245	-9.78334e-08
2	1	0	1	0	261120	-0.158373	-0.159134	0.000623781	1	1.52879e-06	43	9.5448	-9.9265e-08
2	1	0	1	0	261120	-0.155375	-0.156128	0.000644301	1	1.7189e-06	43	9.8446	-1.00594e-07
2	1	0	1	0	261120	-0.152376	-0.153124	0.000664791	1	1.91513e-06	43	10.1444	-1.01796e-07
2	1	0	1	0	261121	-0.149378	-0.150129	0.000684685	1	2.11751e-06	43	10.4443	-1.02791e-07
2	1	0	1	0	261121	-0.146379	-0.147144	0.000705898	1	2.32613e-06	43	10.7442	-1.03869e-07
2	1	0	1	0	261121	-0.143381	-0.144132	0.000726765	1	2.54079e-06	43	11.044	-1.0475e-07
2	1	0	1	0	261122	-0.140383	-0.141143	0.000747576	1	2.76185e-06	43	11.3438	-1.05515e-07
2	1	0	1	0	261122	-0.137384	-0.138135	0.000768596	1	2.98911e-06	43	11.6436	-1.0617e-07
2	1	0	1	0	261122	-0.134386	-0.135148	0.000790045	1	3.22282e-06	43	11.9434	-1.06773e-07
2	1	0	1	0	261123	-0.131388	-0.132166	0.000810678	1	3.46299e-06	43	12.2434	-1.07144e-07
2	1	0	1	0	261123	-0.128389	-0.129122	0.000832496	1	3.70949e-06	43	12.5432	-1.07493e-07
2	1	0	1	0	261123	-0.125391	-0.12615	0.000854276	1	3.96242e-06	43	12.843	-1.07766e-07
2	1	0	1	0	261123	-0.122392	-0.123133	0.000876391	1	4.22201e-06	43	13.1428	-1.07913e-07
2	1	0	1	0	261124	-0.119394	-0.120128	0.00089919	1	4.48812e-06	43	13.4426	-1.08018e-07
2	1	0	1	0	261124	-0.116396	-0.117145	0.000921128	1	4.76109e-06	43	13.7426	-1.07905e-07
2	1	0	1	0	261124	-0.113397	-0.114147	0.000943675	1	5.04055e-06	43	14.0424	-1.07717e-07
2	1	0	1	0	261125	-0.110399	-0.111154	0.000965489	1	5.32673e-06	43	14.3422	-1.07318e-07
2	1	0	1	0	261125	-0.1074	-0.108176	0.000988459	1	5.61955e-06	43	14.642	-1.06927e-07
2	1	0	1	0	261125	-0.104402	-0.105183	0.00101104	1	5.9194e-06	43	14.9418	-1.06344e-07
2	1	0	1	0	261126	-0.101404	-0.102169	0.00103473	1	6.22621e-06	43	15.2417	-1.05717e-07
2	1	0	1	0	261126	-0.0984053	-0.0991757	0.00105816	1	6.54008e-06	43	15.5416	-1.04944e-07
2	1	0	1	0	261126	-0.0954069	-0.0961696	0.00108186	1	6.86078e-06	43	15.8414	-1.04042e-07
2	1	0	1	0	261127	-0.0884107	-0.0892064	0.00114205	1	7.63105e-06	42	16.541	-1.01879e-07
2	1	0	1	0	261127	-0.0854123	-0.0861972	0.00116408	1	7.97686e-06	42	16.8408	-1.00341e-07
2	1	0	1	0	261127	-0.0824139	-0.0832236	0.00118672	1	8.32918e-06	42	17.1406	-9.87631e-08
2	1	0	1	0	261128	-0.0794156	-0.0802251	0.00121109	1	8.68893e-06	42	17.4406	-9.71598e-08
2	1	0	1	0	261128	-0.0764172	-0.0772409	0.00123523	1	9.05545e-06	42	17.7404	-9.54102e-08
2	1	0	1	0	261128	-0.0734188	-0.0742307	0.00126089	1	9.42948e-06	42	18.0402	-9.35969e-08
2	1	0	1	0	261129	-0.0704204	-0.071242	0.00128556	1	9.81101e-06	42	18.34	-9.1586e-08
2	1	0	1	0	261129	-0.067422	-0.0682359	0.00131058	1	1.02001e-05	42	18.6398	-8.94287e-08
2	1	0	1	0	261129	-0.0644246	-0.0652438	0.00133609	1	1.0597e-05	42	18.9397	-8.71714e-08
2	1	0	1	0	261130	-0.0614253	-0.0622092	0.00136157	1	1.10014e-05	42	19.2396	-8.4702e-08
2	1	0	1	0	261130	-0.0584269	-0.0592239	0.00138747	1	1.14135e-05	42	19.5394	-8.21714e-08
2	1	0	1	0	261130	-0.0554285	-0.0562187	0.00141442	1	1.18334e-05	42	19.8392	-7.95168e-08
2	1	0	1	0	261130	-0.0524301	-0.0532384	0.00143957	1	1.22613e-05	42	20.139	-7.66403e-08
2	1	0	1	0	261131	-0.049432	-0.0502497	0.00146748	1	1.26971e-05	42	20.4389	-7.37406e-08
2	1	0	1	0	261131	-0.0464334	-0.0472528	0.0014939	1	1.31412e-05	42	20.7388	-7.05911e-08
2	1	0	1	0	261131	-0.043435	-0.0442255	0.0015204	1	1.35932e-05	42	21.0386	-6.72406e-08
2	1	0	1	0	261132	-0.0404366	-0.0412334	0.0015483	1	1.40532e-05	42	21.3384	-6.38418e-08
2	1	0	1	0	261132	-0.0374382	-0.038234	0.00157605	1	1.45214e-05	42	21.6382	-6.02585e-08
2	1	0	1	0	261132	-0.0344392	-0.0352445	0.00160265	1	1.49982e-05	42	21.9381	-5.64847e-08
2	1	0	1	0	261133	-0.0314415	-0.0322384	0.00163135	1	1.54832e-05	42	22.238	-5.25922e-08
2	1	0	1	0	261133	-0.0284431	-0.02925	0.00165973	1	1.59764e-05	42	22.5378	-4.85472e-08
2	1	0	1	0	261133	-0.0254447	-0.0262153	0.00168676	1	1.6478e-05	42	22.8376	-4.4219e-08
2	1	0	1	0	261133	-0.0224463	-0.023265	0.00171588	1	1.6988e-05	42	23.1374	-3.99199e-08
2	1	0	1	0	261134	-0.0194479	-0.0202479	0.00174338	1	1.75067e-05	42	23.4372	-3.52998e-08
2	1	0	1	0	261134	-0.0164495	-0.0172493	0.001772	1	1.80342e-05	42	23.7372	-3.05659e-08
2	1	0	1	0	261134	-0.0134512	-0.0142532	0.00180181	1	1.857e-05	42	24.037	-2.56816e-08
2	1	0	1	0	261135	-0.0104528	-0.0112442	0.00182964	1	1.91147e-05	42	24.3368	-2.05728e-08
2	1	0	1	0	261135	-0.00745439	-0.00826977	0.00186097	1	1.96681e-05	42	24.6366	-1.53898e-08
2	1	0	1	0	261135	-0.00445601	-0.00525841	0.00188887	1	2.02301e-05	42	24.9364	-9.93244e-09
2	1	0	1	0	261136	-0.00145762	-0.00229266	0.00191953	1	2.08015e-05	42	25.2364	-4.40084e-09
2	1	0	1	1	261136	-0.000758001	-0.000237087	0.0019242	1	2.12363e-05	42	25.4618	-4.56204e-10
2	1	0	1	1	261136	-0.00375638	-0.00295551	0.00181423	1	2.17917e-05	42	25.7616	-5.36199e-09
2	1	0	1	1	261136	-0.00675477	-0.00591363	0.00176851	1	2.23287e-05	42	26.0614	-1.04583e-08
2	1	0	1	1	261137	-0.00975315	-0.0089218	0.00172587	1	2.28525e-05	42	26.3612	-1.53978e-08
2	1	0	1	1	261137	-0.0127515	-0.0119105	0.00168445	1	2.33637e-05	42	26.661	-2.00626e-08
2	1	0	1	1	261137	-0.0157499	-0.0149078	0.00164515	1	2.38632e-05	42	26.961	-2.45256e-08
2	1	0	1	1	261138	-0.0187483	-0.0179247	0.0016075	1	2.43508e-05	42	27.2608	-2.8814e-08
2	1	0	1	1	261138	-0.0217467	-0.0209203	0.00157086	1	2.4827e-05	42	27.5606	-3.2863e-08
2	1	0	1	1	261138	-0.0247451	-0.0239245	0.00153415	1	2.52924e-05	42	27.8604	-3.67037e-08
2	1	0	1	1	261138	-0.0277434	-0.0269087	0.00149968	1	2.57473e-05	42	28.1602	-4.03545e-08
2	1	0	1	1	261139	-0.0307416	-0.0299073	0.00146474	1	2.61916e-05	42	28.4601	-4.38065e-08
2	1	0	1	1	261139	-0.0337402	-0.03291	0.0014315	1	2.66258e-05	42	28.76	-4.71105e-08
2	1	0	1	1	261139	-0.0367386	-0.0358706	0.00139938	1	2.70501e-05	42	29.0598	-5.01968e-08
2	1	0	1	1	261140	-0.039737	-0.038875	0.00136672	1	2.74648e-05	42	29.3596	-5.31311e-08
2	1	0	1	1	261140	-0.0427354	-0.0419122	0.00133555	1	2.78698e-05	42	29.6594	-5.59759e-08
2	1	0	1	1	261140	-0.0457342	-0.0448964	0.00130513	1	2.82657e-05	42	29.9593	-5.85956e-08
2	1	0	1	1	261141	-0.0487321	-0.0479093	0.00127459	1	2.86525e-05	42	30.2592	-6.10646e-08
2	1	0	1	1	261141	-0.0517305	-0.0509119	0.00124539	1	2.90302e-05	42	30.559	-6.34052e-08
2	1	0	1	1	261141	-0.0547289	-0.0538885	0.00121659	1	2.93991e-05	42	30.8588	-6.55602e-08
2	1	0	1	1	261141	-0.0577273	-0.0569036	0.00118692	1	2.97594e-05	42	31.1586	-6.75403e-08
2	1	0	1	1	261142	-0.0607256	-0.0598934	0.00116026	1	3.01113e-05	42	31.4584	-6.94918e-08
2	1	0	1	1	261142	-0.063724	-0.0628867	0.00113211	1	3.0455e-05	42	31.7584	-7.11948e-08
2	1	0	1	1	261142	-0.0667224	-0.0658643	0.00110544	1	3.07905e-05	42	32.0582	-7.2809e-08
2	1	0	1	1	261143	-0.0697208	-0.0688708	0.00107931	1	3.1118e-05	42	32.358	-7.43329e-08
2	1	0	1	1	261143	-0.0727192	-0.0718809	0.00105359	1	3.14376e-05	42	32.6578	-7.5733e-08
2	1	0	1	1	261143	-0.0757176	-0.0748789	0.0010278	1	3.17496e-05	42	32.9576	-7.69605e-08
2	1	0	1	1	261144	-0.0787159	-0.0778571	0.00100251	1	3.20541e-05	42	33.2576	-7.80526e-08
2	1	0	1	1	261144	-0.0817143	-0.0808698	0.00097856	1	3.23511e-05	42	33.5574	-7.91359e-08
2	1	0	1	1	261144	-0.0847127	-0.0838637	0.00095343	1	3.26406e-05	42	33.8572	-7.99581e-08
2	1	0	1	1	261144	-0.0877111	-0.0868833	0.000929673	1	3.29228e-05	42	34.157	-8.0773e-08
2	1	0	1	1	261145	-0.0907095	-0.0898362	0.000906524	1	3.31981e-05	42	34.4568	-8.14386e-08
2	1	0	1	1	261145	-0.0937074	-0.0928377	0.000883292	1	3.34662e-05	42	34.7567	-8.20028e-08
2	1	0	1	1	261145	-0.0967062	-0.0958523	0.000859991	1	3.37275e-05	42	35.0566	-8.24321e-08
2	1	0	1	1	261146	-0.0997046	-0.098853	0.000836943	1	3.39819e-05	42	35.3564	-8.27343e-08
2	1	0	1	1	261146	-0.102703	-0.101858	0.000815151	1	3.42295e-05	42	35.6562	-8.303e-08
2	1	0	1	1	261146	-0.105701	-0.104847	0.000793272	1	3.44705e-05	42	35.956	-8.31725e-08
2	1	0	1	1	261147	-0.1087	-0.107857	0.000771923	1	3.47051e-05	42	36.2559	-8.32573e-08
2	1	0	1	1	261147	-0.111698	-0.110825	0.000749793	1	3.49332e-05	42	36.5558	-8.30956e-08
2	1	0	1	1	261147	-0.114697	-0.113842	0.000729001	1	3.51549e-05	42	36.8556	-8.29905e-08
2	1	0	1	1	261147	-0.117695	-0.11684	0.000708415	1	3.53703e-05	42	37.1554	-8.27711e-08
2	1	0	1	1	261148	-0.120693	-0.119838	0.000688526	1	3.55797e-05	42	37.4552	-8.25116e-08
2	1	0	1	1	261148	-0.123692	-0.122845	0.000667309	1	3.57828e-05	42	37.755	-8.19757e-08
2	1	0	1	1	261148	-0.12669	-0.125819	0.000647672	1	3.59801e-05	42	38.055	-8.14895e-08
2	1	0	1	1	261149	-0.129688	-0.128834	0.000627848	1	3.61712e-05	42	38.3548	-8.08878e-08
2	1	0	1	1	261149	-0.132687	-0.131836	0.000608506	1	3.63565e-05	42	38.6546	-8.02227e-08
2	1	0	1	1	261149	-0.135685	-0.134855	0.000588902	1	3.65359e-05	42	38.9544	-7.94166e-08
2	1	0	1	1	261150	-0.138684	-0.137821	0.000569779	1	3.67096e-05	42	39.2542	-7.85275e-08
2	1	0	1	1	261150	-0.141682	-0.140839	0.000551631	1	3.68778e-05	42	39.5542	-7.76911e-08
2	1	0	1	1	261150	-0.14468	-0.143832	0.000532986	1	3.70402e-05	42	39.854	-7.66603e-08
2	1	0	1	1	261150	-0.147679	-0.146837	0.000514543	1	3.71971e-05	42	40.1538	-7.55537e-08
2	1	0	1	1	261151	-0.150677	-0.149852	0.000495304	1	3.73485e-05	42	40.4536	-7.42225e-08
2	1	0	1	1	261151	-0.153675	-0.15284	0.000477847	1	3.74943e-05	42	40.7534	-7.30342e-08
2	1	0	1	1	261151	-0.156673	-0.155839	0.000460142	1	3.76349e-05	42	41.0533	-7.17081e-08
2	1	0	1	1	261152	-0.16367	-0.162806	0.000420557	1	3.7947e-05	43	41.753	-6.84691e-08
2	1	0	1	1	261152	-0.166668	-0.165809	0.000403351	1	3.80705e-05	43	42.0528	-6.68791e-08
2	1	0	1	1	261153	-0.169667	-0.168814	0.000386329	1	3.81888e-05	43	42.3526	-6.52177e-08
2	1	0	1	1	261153	-0.172665	-0.171796	0.000369232	1	3.8302e-05	43	42.6524	-6.34327e-08
2	1	0	1	1	261153	-0.175664	-0.174785	0.000352197	1	3.841e-05	43	42.9522	-6.15587e-08
2	1	0	1	1	261154	-0.178662	-0.177796	0.0003351	1	3.85131e-05	43	43.2522	-5.95794e-08
2	1	0	1	1	261154	-0.18166	-0.180796	0.000318327	1	3.8611e-05	43	43.552	-5.75523e-08
2	1	0	1	1	261154	-0.184659	-0.183824	0.000301849	1	3.8704e-05	43	43.8518	-5.54871e-08
2	1	0	1	1	261154	-0.187657	-0.186824	0.000285227	1	3.8792e-05	43	44.1516	-5.32872e-08
2	1	0	1	1	261155	-0.190656	-0.189793	0.000268897	1	3.8875e-05	43	44.4514	-5.10347e-08
2	1	0	1	1	261155	-0.193653	-0.192792	0.000252944	1	3.89532e-05	43	44.7513	-4.87655e-08
2	1	0	1	1	261155	-0.196652	-0.195802	0.000236535	1	3.90265e-05	43	45.0512	-4.63142e-08
2	1	0	1	1	261156	-0.199651	-0.198794	0.000220057	1	3.90949e-05	43	45.351	-4.3746e-08
2	1	0	1	1	261156	-0.202649	-0.201803	0.000204096	1	3.91584e-05	43	45.6508	-4.11873e-08
2	1	0	1	1	261156	-0.205647	-0.204814	0.000187866	1	3.92172e-05	43	45.9506	-3.84775e-08
2	1	0	1	1	261157	-0.208646	-0.207808	0.000172125	1	3.92712e-05	43	46.2505	-3.5769e-08
2	1	0	1	1	261157	-0.211644	-0.210797	0.000156192	1	3.93204e-05	43	46.5504	-3.29248e-08
2	1	0	1	1	261157	-0.214643	-0.213801	0.000140416	1	3.93648e-05	43	46.8502	-3.00211e-08
2	1	0	1	1	261157	-0.217641	-0.216807	0.000124261	1	3.94044e-05	43	47.15	-2.69407e-08
2	1	0	1	1	261158	-0.220639	-0.219795	0.000108773	1	3.94393e-05	43	47.4498	-2.39077e-08
2	1	0	1	1	261158	-0.223638	-0.222759	9.28131e-05	1	3.94695e-05	43	47.7497	-2.06749e-08
2	1	0	1	1	261158	-0.226636	-0.225811	7.89918e-05	1	3.94956e-05	43	48.0496	-1.78372e-08
2	1	0	1	1	261159	-0.229635	-0.228795	6.57769e-05	1	3.95171e-05	43	48.3494	-1.50494e-08
2	1	0	1	1	261159	-0.232633	-0.231807	4.75712e-05	1	3.9534e-05	43	48.6492	-1.10274e-08
2	1	0	1	1	261160	-0.239629	-0.238758	1.14389e-05	1	3.95591e-05	44	49.3488	-2.73113e-09
2	0	0	1	1	261160	-0.242453	-0.241588	-2.74362e-06	1	3.95603e-05	44	0.0324	6.62826e-10
2	0	0	1	1	261161	-0.252822	-0.251977	-5.46479e-05	2	3.95385e-05	44	1.0695	1.377e-08
2	0	0	1	1	261161	-0.25582	-0.25497	-7.05602e-05	2	3.95197e-05	44	1.3693	1.79907e-08
2	0	0	1	1	261162	-0.258819	-0.257977	-8.61469e-05	2	3.94962e-05	44	1.6691	2.22239e-08
2	0	0	1	1	261162	-0.261817	-0.260969	-0.000101757	2	3.9468e-05	44	1.9689	2.65555e-08
2	0	0	1	1	261163	-0.268813	-0.267973	-0.000139163	2	3.93879e-05	43	2.6685	3.7292e-08
2	0	0	1	1	261163	-0.271812	-0.270954	-0.00015438	2	3.93439e-05	43	2.9684	4.18299e-08
2	0	0	1	1	261163	-0.27481	-0.27397	-0.000170404	2	3.92952e-05	43	3.2683	4.66857e-08
2	0	0	1	1	261163	-0.277809	-0.276975	-0.000186034	2	3.92418e-05	43	3.5681	5.15267e-08
2	0	0	1	1	261164	-0.280807	-0.279969	-0.000201829	2	3.91837e-05	43	3.8679	5.65058e-08
2	0	0	1	1	261164	-0.283805	-0.282969	-0.000217408	2	3.91208e-05	43	4.1677	6.15197e-08
2	0	0	1	1	261164	-0.286804	-0.285966	-0.000233241	2	3.90533e-05	43	4.4675	6.6699e-08
2	0	0	1	1	261165	-0.289802	-0.288951	-0.000248888	2	3.8981e-05	43	4.7675	7.19165e-08
2	0	0	1	1	261165	-0.2928	-0.291944	-0.00026465	2	3.89039e-05	43	5.0673	7.72629e-08
2	0	0	1	1	261165	-0.295799	-0.294955	-0.000280629	2	3.88222e-05	43	5.3671	8.27728e-08
2	0	0	1	1	261166	-0.298797	-0.297908	-0.000296633	2	3.87357e-05	43	5.6669	8.83694e-08
2	0	0	1	1	261166	-0.297798	-0.298585	-0.000229721	2	3.86636e-05	43	5.9224	6.85912e-08
2	0	0	1	1	261166	-0.294799	-0.29554	-0.000190312	2	3.86021e-05	43	6.2223	5.62449e-08
2	0	0	1	1	261166	-0.291801	-0.292554	-0.000167393	2	3.85486e-05	43	6.5221	4.89714e-08
2	0	0	1	1	261167	-0.288803	-0.28954	-0.000147523	2	3.85014e-05	43	6.8219	4.27138e-08
2	0	0	1	1	261167	-0.285804	-0.286555	-0.00012925	2	3.84599e-05	43	7.1217	3.70372e-08
2	0	0	1	1	261167	-0.282806	-0.283558	-0.000111506	2	3.84238e-05	43	7.4216	3.16184e-08
2	0	0	1	1	261168	-0.279807	-0.280579	-9.43996e-05	2	3.8393e-05	43	7.7215	2.64865e-08
2	0	0	1	1	261168	-0.276809	-0.277572	-7.75918e-05	2	3.83672e-05	43	8.0213	2.15373e-08
2	0	0	1	1	261168	-0.273811	-0.274555	-6.12343e-05	2	3.83464e-05	43	8.3211	1.68122e-08
2	0	0	1	1	261169	-0.268813	-0.269575	-3.38077e-05	2	3.83218e-05	43	8.8208	9.11371e-09
2	0	0	1	1	261169	-0.263816	-0.264594	-6.92765e-06	2	3.83081e-05	44	9.3205	1.83301e-09
2	1	0	1	1	261170	-0.252822	-0.253586	5.10731e-05	2	3.83239e-05	44	0.5996	-1.29514e-08
2	1	0	1	1	261171	-0.249824	-0.250574	6.70436e-05	2	3.83417e-05	44	0.8996	-1.67994e-08
2	1	0	1	1	261171	-0.246825	-0.247601	8.29067e-05	2	3.83642e-05	44	1.1994	-2.05278e-08
2	1	0	1	1	261171	-0.243827	-0.244565	9.85195e-05	2	3.83914e-05	44	1.4992	-2.40944e-08
2	1	0	1	1	261172	-0.236831	-0.237572	0.000135747	2	3.84692e-05	43	2.1988	-3.22496e-08
2	1	0	1	1	261172	-0.233832	-0.234583	0.000151611	2	3.85122e-05	43	2.4986	-3.55653e-08
2	1	0	1	1	261173	-0.230833	-0.231584	0.000167499	2	3.85601e-05	43	2.7985	-3.879e-08
2	1	0	1	1	261173	-0.227835	-0.228592	0.000183336	2	3.86128e-05	43	3.0984	-4.19091e-08
2	1	0	1	1	261173	-0.224837	-0.225593	0.00019942	2	3.86702e-05	43	3.3982	-4.49877e-08
2	1	0	1	1	261173	-0.221839	-0.222562	0.000215736	2	3.87324e-05	43	3.698	-4.80147e-08
2	1	0	1	1	261174	-0.21884	-0.219592	0.000231492	2	3.87995e-05	43	3.9978	-5.08337e-08
2	1	0	1	1	261174	-0.215842	-0.216608	0.000247678	2	3.88714e-05	43	4.2976	-5.3649e-08
2	1	0	1	1	261174	-0.212844	-0.213638	0.000263933	2	3.89483e-05	43	4.5976	-5.6386e-08
2	1	0	1	1	261175	-0.209845	-0.210612	0.000280725	2	3.903e-05	43	4.8974	-5.9124e-08
2	1	0	1	1	261175	-0.206847	-0.207609	0.000297163	2	3.91167e-05	43	5.1972	-6.16938e-08
2	1	0	1	1	261175	-0.203848	-0.20462	0.000313609	2	3.92082e-05	43	5.497	-6.41706e-08
2	1	0	1	1	261176	-0.20085	-0.20159	0.000330129	2	3.93048e-05	43	5.7968	-6.65507e-08
2	1	0	1	1	261176	-0.197852	-0.198584	0.000346874	2	3.94064e-05	43	6.0968	-6.88837e-08
2	1	0	1	1	261176	-0.194853	-0.195594	0.000363685	2	3.95129e-05	43	6.3966	-7.11345e-08
2	1	0	1	1	261176	-0.191855	-0.192603	0.000380317	2	3.96245e-05	43	6.6964	-7.32504e-08
2	1	0	1	1	261177	-0.188857	-0.189611	0.00039747	2	3.97411e-05	43	6.9962	-7.53645e-08
2	1	0	1	1	261177	-0.185858	-0.186632	0.00041415	2	3.98628e-05	43	7.296	-7.72937e-08
2	1	0	1	1	261177	-0.18286	-0.183619	0.000431572	2	3.99896e-05	43	7.5959	-7.92449e-08
2	1	0	1	1	261178	-0.179861	-0.180602	0.000448833	2	4.01215e-05	43	7.8958	-8.10602e-08
2	1	0	1	1	261178	-0.176863	-0.17758	0.000466007	2	4.02586e-05	43	8.1956	-8.27535e-08
2	1	0	1	1	261178	-0.173865	-0.174613	0.000483085	2	4.04009e-05	43	8.4954	-8.43531e-08
2	1	0	1	1	261179	-0.170866	-0.171606	0.000500597	2	4.05483e-05	43	8.7952	-8.59056e-08
2	1	0	1	1	261179	-0.167867	-0.168616	0.000518139	2	4.0701e-05	43	9.0951	-8.73666e-08
2	1	0	1	1	261179	-0.164869	-0.165619	0.000536011	2	4.08589e-05	43	9.395	-8.87734e-08
2	1	0	1	1	261179	-0.161871	-0.162631	0.000552679	2	4.10221e-05	43	9.6948	-8.98825e-08
2	1	0	1	1	261180	-0.158873	-0.159607	0.000570902	2	4.11906e-05	43	9.9946	-9.11197e-08
2	1	0	1	1	261180	-0.155874	-0.156609	0.000588952	2	4.13645e-05	43	10.2944	-9.2235e-08
2	1	0	1	1	261180	-0.152876	-0.153625	0.000606836	2	4.15437e-05	43	10.5942	-9.32249e-08
2	1	0	1	1	261181	-0.149878	-0.150624	0.000625289	2	4.17287e-05	43	10.8942	-9.41837e-08
2	1	0	1	1	261181	-0.146879	-0.14765	0.000643609	2	4.19189e-05	43	11.194	-9.50289e-08
2	1	0	1	1	261181	-0.143881	-0.144633	0.000662489	2	4.21147e-05	43	11.4938	-9.58176e-08
2	1	0	1	1	261182	-0.140882	-0.141617	0.000680078	2	4.2316e-05	43	11.7936	-9.63104e-08
2	1	0	1	1	261182	-0.137884	-0.138619	0.000699385	2	4.25228e-05	43	12.0934	-9.6948e-08
2	1	0	1	1	261182	-0.134886	-0.135633	0.000718035	2	4.27355e-05	43	12.3934	-9.73895e-08
2	1	0	1	1	261182	-0.131887	-0.13263	0.000736974	2	4.29537e-05	43	12.6932	-9.77446e-08
2	1	0	1	1	261183	-0.128889	-0.129633	0.000765826	2	4.31783e-05	43	12.993	-9.92767e-08
2	1	0	1	1	261183	-0.12589	-0.126641	0.000779885	2	4.34098e-05	43	13.2928	-9.87654e-08
2	1	0	1	1	261183	-0.122892	-0.123644	0.000798829	2	4.36463e-05	43	13.5926	-9.87702e-08
2	1	0	1	1	261184	-0.119894	-0.120643	0.000817472	2	4.38886e-05	43	13.8925	-9.8622e-08
2	1	0	1	1	261184	-0.116895	-0.117651	0.000836917	2	4.41366e-05	43	14.1924	-9.84642e-08
2	1	0	1	1	261184	-0.113897	-0.11465	0.000856667	2	4.43906e-05	43	14.4922	-9.82171e-08
2	1	0	1	1	261185	-0.110899	-0.111631	0.000876863	2	4.46504e-05	43	14.792	-9.78853e-08
2	1	0	1	1	261185	-0.1079	-0.108634	0.000896363	2	4.49162e-05	43	15.0918	-9.73756e-08
2	1	0	1	1	261185	-0.104901	-0.105644	0.000917441	2	4.51883e-05	43	15.3917	-9.69221e-08
2	1	0	1	1	261185	-0.101903	-0.102641	0.00093777	2	4.54664e-05	43	15.6916	-9.62537e-08
2	1	0	1	1	261186	-0.098905	-0.0996597	0.000958325	2	4.57508e-05	43	15.9914	-9.55064e-08
2	1	0	1	1	261186	-0.0959067	-0.0966691	0.000979536	2	4.60413e-05	43	16.2912	-9.46908e-08
2	1	0	1	1	261186	-0.0929083	-0.0936567	0.00100152	2	4.63383e-05	43	16.591	-9.37989e-08
2	1	0	1	1	261187	-0.0899099	-0.0906632	0.00102282	2	4.66416e-05	43	16.8908	-9.27323e-08
2	1	0	1	1	261187	-0.0869115	-0.0876571	0.0010432	2	4.69516e-05	43	17.1908	-9.14443e-08
2	1	0	1	1	261187	-0.0839131	-0.0846532	0.00106608	2	4.7268e-05	43	17.4906	-9.02472e-08
2	1	0	1	1	261188	-0.0809148	-0.0816556	0.00108756	2	4.75907e-05	43	17.7904	-8.8805e-08
2	1	0	1	1	261188	-0.0739185	-0.0747177	0.00114335	2	4.83645e-05	42	18.49	-8.54284e-08
2	1	0	1	1	261189	-0.0709201	-0.0717288	0.00116546	2	4.87105e-05	42	18.7898	-8.35972e-08
2	1	0	1	1	261189	-0.0679218	-0.0687194	0.00118494	2	4.90629e-05	42	19.0897	-8.14287e-08
2	1	0	1	1	261189	-0.0649234	-0.0657006	0.00120825	2	4.94219e-05	42	19.3896	-7.93825e-08
2	1	0	1	1	261189	-0.061925	-0.0627234	0.00123114	2	4.97874e-05	42	19.6894	-7.72212e-08
2	1	0	1	1	261190	-0.0589266	-0.0597035	0.00125377	2	5.01597e-05	42	19.9892	-7.48542e-08
2	1	0	1	1	261190	-0.0559282	-0.0567121	0.00127647	2	5.05391e-05	42	20.289	-7.2391e-08
2	1	0	1	1	261190	-0.0529292	-0.0537238	0.00129905	2	5.09255e-05	42	20.5889	-6.979e-08
2	1	0	1	1	261191	-0.0499315	-0.0507174	0.00132397	2	5.13191e-05	42	20.8888	-6.71483e-08
2	1	0	1	1	261191	-0.0469331	-0.0477411	0.00134996	2	5.17198e-05	42	21.1886	-6.44486e-08
2	1	0	1	1	261191	-0.0439347	-0.044728	0.00137244	2	5.21279e-05	42	21.4884	-6.13864e-08
2	1	0	1	1	261192	-0.0409363	-0.0417313	0.00139664	2	5.2543e-05	42	21.7882	-5.82836e-08
2	1	0	1	1	261192	-0.0379379	-0.0387314	0.00142217	2	5.29654e-05	42	22.088	-5.50826e-08
2	1	0	1	1	261192	-0.0349396	-0.0357347	0.00144718	2	5.33958e-05	42	22.388	-5.17145e-08
2	1	0	1	1	261192	-0.0319412	-0.0327208	0.00147191	2	5.38334e-05	42	22.6878	-4.8162e-08
2	1	0	1	1	261193	-0.0289428	-0.0297459	0.00149754	2	5.42785e-05	42	22.9876	-4.45457e-08
2	1	0	1	1	261193	-0.0259444	-0.026763	0.00152311	2	5.47313e-05	42	23.2874	-4.0763e-08
2	1	0	1	1	261193	-0.022946	-0.0237764	0.00154835	2	5.51918e-05	42	23.5872	-3.68142e-08
2	1	0	1	1	261194	-0.0199485	-0.0207487	0.0015747	2	5.56601e-05	42	23.8871	-3.26731e-08
2	1	0	1	1	261194	-0.0169493	-0.0177454	0.00160135	2	5.61362e-05	42	24.187	-2.84166e-08
2	1	0	1	1	261194	-0.0139509	-0.0147504	0.00162614	2	5.66201e-05	42	24.4868	-2.39863e-08
2	1	0	1	1	261195	-0.0109525	-0.0117433	0.00165406	2	5.71119e-05	42	24.7866	-1.94241e-08
2	1	0	1	1	261195	-0.00795412	-0.00874893	0.00167944	2	5.76115e-05	42	25.0864	-1.46933e-08
2	1	0	1	1	261195	-0.00495596	-0.00575232	0.00170663	2	5.81195e-05	42	25.3863	-9.81705e-09
2	1	0	1	1	261195	-0.00195735	-0.00276313	0.0017333	2	5.86354e-05	42	25.6862	-4.78933e-09
2	1	0	1	0	261196	-0.000258271	-0.000513681	0.00175269	2	5.90284e-05	42	25.9116	-9.00326e-10
2	1	0	1	0	261196	-0.00325665	-0.00245472	0.00164349	2	5.95347e-05	42	26.2114	-4.03431e-09
2	1	0	1	0	261196	-0.00625504	-0.00543107	0.00160007	2	6.00205e-05	42	26.5112	-8.69008e-09
2	1	0	1	0	261197	-0.00925342	-0.008421	0.00155989	2	6.0494e-05	42	26.811	-1.31358e-08
2	1	0	1	0	261197	-0.0122516	-0.0114122	0.00152299	2	6.09562e-05	42	27.1109	-1.73806e-08
2	1	0	1	0	261197	-0.0152502	-0.0144049	0.00148737	2	6.14076e-05	42	27.4108	-2.14253e-08
2	1	0	1	0	261197	-0.0182486	-0.017422	0.00145293	2	6.18482e-05	42	27.7106	-2.53128e-08
2	1	0	1	0	261198	-0.0212469	-0.0204198	0.00141954	2	6.22788e-05	42	28.0104	-2.89866e-08
2	1	0	1	0	261198	-0.0242453	-0.0234192	0.00138698	2	6.26995e-05	42	28.3102	-3.2482e-08
2	1	0	1	0	261198	-0.0272444	-0.0264053	0.00135604	2	6.31107e-05	42	28.6101	-3.58067e-08
2	1	0	1	0	261199	-0.0302421	-0.0293968	0.00132564	2	6.35126e-05	42	28.91	-3.89697e-08
2	1	0	1	0	261199	-0.0332405	-0.0323971	0.00129487	2	6.39053e-05	42	29.2098	-4.19499e-08
2	1	0	1	0	261199	-0.0362389	-0.0354184	0.00126601	2	6.42891e-05	42	29.5096	-4.484e-08
2	1	0	1	0	261200	-0.0392372	-0.0383772	0.00123676	2	6.46643e-05	42	29.8094	-4.74632e-08
2	1	0	1	0	261200	-0.0422356	-0.0413847	0.00120891	2	6.50308e-05	42	30.1092	-5.00304e-08
2	1	0	1	0	261200	-0.045234	-0.0443812	0.00118154	2	6.53893e-05	42	30.4092	-5.24384e-08
2	1	0	1	0	261200	-0.0482324	-0.0473796	0.00115405	2	6.57393e-05	42	30.709	-5.46784e-08
2	1	0	1	0	261201	-0.0512308	-0.0503681	0.00112758	2	6.60813e-05	42	31.0088	-5.67941e-08
2	1	0	1	0	261201	-0.0542291	-0.0533983	0.00110137	2	6.64154e-05	42	31.3086	-5.88111e-08
2	1	0	1	0	261201	-0.0572275	-0.0563842	0.00107563	2	6.67417e-05	42	31.6084	-6.06485e-08
2	1	0	1	0	261202	-0.0602259	-0.0593741	0.0010507	2	6.70607e-05	42	31.9084	-6.23844e-08
2	1	0	1	0	261202	-0.0632243	-0.062385	0.0010266	2	6.7372e-05	42	32.2082	-6.40444e-08
2	1	0	1	0	261202	-0.0662227	-0.0653917	0.00100171	2	6.7676e-05	42	32.508	-6.55037e-08
2	1	0	1	0	261203	-0.0692211	-0.0683823	0.000978556	2	6.79727e-05	42	32.8078	-6.69159e-08
2	1	0	1	0	261203	-0.0722195	-0.0713765	0.000954639	2	6.82624e-05	42	33.1076	-6.81388e-08
2	1	0	1	0	261203	-0.0752176	-0.0743856	0.000931324	2	6.85451e-05	42	33.4075	-6.92771e-08
2	1	0	1	0	261203	-0.0782162	-0.0773792	0.00090926	2	6.88211e-05	42	33.7074	-7.03579e-08
2	1	0	1	0	261204	-0.0812146	-0.0803658	0.000886464	2	6.90902e-05	42	34.0072	-7.12414e-08
2	1	0	1	0	261204	-0.084213	-0.0833606	0.000864931	2	6.93527e-05	42	34.307	-7.21012e-08
2	1	0	1	0	261204	-0.0872114	-0.0863702	0.000843335	2	6.96086e-05	42	34.6068	-7.28391e-08
2	1	0	1	0	261205	-0.0902102	-0.0893615	0.000820727	2	6.98581e-05	42	34.9067	-7.33414e-08
2	1	0	1	0	261205	-0.0932081	-0.0923779	0.00080067	2	7.01012e-05	42	35.2066	-7.39642e-08
2	1	0	1	0	261205	-0.0962065	-0.0953598	0.000779089	2	7.0338e-05	42	35.5064	-7.42938e-08
2	1	0	1	0	261206	-0.0992049	-0.0983514	0.000759262	2	7.05686e-05	42	35.8062	-7.46744e-08
2	1	0	1	0	261206	-0.102203	-0.101357	0.000739403	2	7.07932e-05	42	36.106	-7.49437e-08
2	1	0	1	0	261206	-0.105202	-0.10436	0.000719746	2	7.10118e-05	42	36.4058	-7.51129e-08
2	1	0	1	0	261206	-0.1082	-0.107371	0.000699392	2	7.12246e-05	42	36.7058	-7.50941e-08
2	1	0	1	0	261207	-0.111198	-0.110381	0.000680462	2	7.14315e-05	42	37.0056	-7.51101e-08
2	1	0	1	0	261207	-0.114197	-0.113376	0.000660479	2	7.16325e-05	42	37.3054	-7.48826e-08
2	1	0	1	0	261207	-0.117195	-0.116351	0.000642286	2	7.18278e-05	42	37.6052	-7.47303e-08
2	1	0	1	0	261208	-0.120194	-0.119363	0.000623615	2	7.20176e-05	42	37.905	-7.44365e-08
2	1	0	1	0	261208	-0.123192	-0.12233	0.000605424	2	7.22019e-05	42	38.205	-7.40617e-08
2	1	0	1	0	261208	-0.12619	-0.125352	0.000586904	2	7.23806e-05	42	38.5048	-7.35693e-08
2	1	0	1	0	261209	-0.129189	-0.128336	0.000568991	2	7.25539e-05	42	38.8046	-7.30219e-08
2	1	0	1	0	261209	-0.132187	-0.131359	0.000551292	2	7.27219e-05	42	39.1044	-7.2417e-08
2	1	0	1	0	261209	-0.135185	-0.134313	0.000534307	2	7.28846e-05	42	39.4042	-7.17642e-08
2	1	0	1	0	261209	-0.138183	-0.137342	0.000516779	2	7.30422e-05	42	39.7041	-7.09755e-08
2	1	0	1	0	261210	-0.141182	-0.140338	0.000498929	2	7.31945e-05	42	40.004	-7.00187e-08
2	1	0	1	0	261210	-0.144181	-0.143328	0.000482834	2	7.33416e-05	42	40.3038	-6.92035e-08
2	1	0	1	0	261210	-0.147179	-0.146315	0.000465303	2	7.34836e-05	42	40.6036	-6.80807e-08
2	1	0	1	0	261211	-0.152176	-0.15131	0.00043859	2	7.37102e-05	42	41.1033	-6.63631e-08
2	1	0	1	0	261211	-0.157174	-0.156311	0.000412555	2	7.39263e-05	43	41.603	-6.44869e-08
2	1	0	1	0	261212	-0.160172	-0.159324	0.000396486	2	7.40476e-05	43	41.903	-6.31696e-08
2	1	0	1	0	261212	-0.16317	-0.1623	0.000380599	2	7.4164e-05	43	42.2028	-6.1771e-08
2	1	0	1	0	261212	-0.166169	-0.165327	0.000364329	2	7.42756e-05	43	42.5026	-6.02336e-08
2	1	0	1	0	261213	-0.169167	-0.168306	0.000348573	2	7.43825e-05	43	42.8024	-5.86668e-08
2	1	0	1	0	261213	-0.172165	-0.171283	0.000332752	2	7.44847e-05	43	43.1022	-5.69949e-08
2	1	0	1	0	261213	-0.175163	-0.174297	0.00031741	2	7.45822e-05	43	43.4021	-5.53237e-08
2	1	0	1	0	261213	-0.178162	-0.177286	0.000301677	2	7.4675e-05	43	43.702	-5.3483e-08
2	1	0	1	0	261214	-0.181161	-0.180284	0.000286546	2	7.47632e-05	43	44.0018	-5.16597e-08
2	1	0	1	0	261214	-0.184159	-0.183269	0.000270895	2	7.48468e-05	43	44.3016	-4.96466e-08
2	1	0	1	0	261214	-0.187157	-0.186287	0.000255869	2	7.49257e-05	43	44.6014	-4.7665e-08
2	1	0	1	0	261215	-0.190156	-0.189311	0.000240796	2	7.50002e-05	43	44.9013	-4.55855e-08
2	1	0	1	0	261215	-0.193154	-0.192299	0.000225555	2	7.50701e-05	43	45.2012	-4.33739e-08
2	1	0	1	0	261215	-0.196153	-0.195275	0.00021059	2	7.51355e-05	43	45.501	-4.11229e-08
2	1	0	1	0	261216	-0.199151	-0.198284	0.000195812	2	7.51964e-05	43	45.8008	-3.88263e-08
2	1	0	1	0	261216	-0.202149	-0.20128	0.000180684	2	7.52529e-05	43	46.1006	-3.6368e-08
2	1	0	1	0	261216	-0.205148	-0.204279	0.000165937	2	7.53049e-05	43	46.4005	-3.38975e-08
2	1	0	1	0	261216	-0.208146	-0.207284	0.000151481	2	7.53524e-05	43	46.7004	-3.13996e-08
2	1	0	1	0	261217	-0.211144	-0.210279	0.000136413	2	7.53955e-05	43	47.0002	-2.86849e-08
2	1	0	1	0	261217	-0.214143	-0.213267	0.00012168	2	7.54342e-05	43	47.3	-2.59504e-08
2	1	0	1	0	261217	-0.217141	-0.216294	0.000107003	2	7.54685e-05	43	47.5998	-2.31441e-08
2	1	0	1	0	261218	-0.22014	-0.219279	9.22372e-05	2	7.54984e-05	43	47.8996	-2.02256e-08
2	1	0	1	0	261218	-0.223138	-0.222266	7.76186e-05	2	7.55238e-05	43	48.1996	-1.72519e-08
2	1	0	1	0	261218	-0.226136	-0.225283	6.30078e-05	2	7.55449e-05	43	48.4994	-1.41946e-08
2	1	0	1	0	261219	-0.229135	-0.228297	4.82734e-05	2	7.55615e-05	43	48.7992	-1.10207e-08
2	1	0	1	0	261219	-0.236131	-0.235276	1.44491e-05	2	7.55874e-05	44	49.4988	-3.39952e-09
2	0	0	1	0	261220	-0.247125	-0.246258	-3.93757e-05	2	7.55817e-05	44	0.4997	9.69657e-09
2	0	0	0	0	261221	-0.249649	-0.248801	-5.17095e-05	3	7.55702e-05	44	0.752	1.28654e-08
2	0	0	1	0	261221	-0.252422	-0.251583	-6.49208e-05	3	7.5554e-05	44	1.0295	1.6333e-08
2	0	0	1	0	261221	-0.255421	-0.254571	-7.96302e-05	3	7.55323e-05	44	1.3293	2.02715e-08
2	0	0	1	0	261221	-0.258419	-0.257572	-9.44855e-05	3	7.55061e-05	44	1.6291	2.43368e-08
2	0	0	1	0	261222	-0.263416	-0.262576	-0.000119343	3	7.54535e-05	44	2.1288	3.13367e-08
2	0	0	1	0	261222	-0.268414	-0.267573	-0.000144207	3	7.53908e-05	43	2.6285	3.85859e-08
2	0	0	1	0	261223	-0.271412	-0.27055	-0.000158691	3	7.53454e-05	43	2.9285	4.29338e-08
2	0	0	1	0	261223	-0.27441	-0.273547	-0.000173763	3	7.52956e-05	43	3.2283	4.75323e-08
2	0	0	1	0	261223	-0.277409	-0.276567	-0.000188474	3	7.52413e-05	43	3.5281	5.21258e-08
2	0	0	1	0	261224	-0.280407	-0.27957	-0.000203336	3	7.51826e-05	43	3.8279	5.68466e-08
2	0	0	1	0	261224	-0.283405	-0.282542	-0.000218287	3	7.51194e-05	43	4.1277	6.16754e-08
2	0	0	1	0	261224	-0.286403	-0.285551	-0.00023313	3	7.50517e-05	43	4.4276	6.65703e-08
2	0	0	1	0	261225	-0.289402	-0.288545	-0.000248298	3	7.49794e-05	43	4.7275	7.16451e-08
2	0	0	1	0	261225	-0.292401	-0.29154	-0.000263236	3	7.49027e-05	43	5.0273	7.6744e-08
2	0	0	1	0	261225	-0.295399	-0.294553	-0.000278465	3	7.48215e-05	43	5.3271	8.20225e-08
2	0	0	1	0	261225	-0.298397	-0.297556	-0.000293713	3	7.47357e-05	43	5.6269	8.73963e-08
2	0	0	1	0	261226	-0.298297	-0.299065	-0.000256286	3	7.46641e-05	43	5.8725	7.66461e-08
2	0	0	1	0	261226	-0.295299	-0.296022	-0.000193526	3	7.46005e-05	43	6.1723	5.7288e-08
2	0	0	1	0	261226	-0.292301	-0.293032	-0.000171468	3	7.45459e-05	43	6.4721	5.02455e-08
2	0	0	1	0	261227	-0.289302	-0.290039	-0.000151887	3	7.44976e-05	43	6.7719	4.40533e-08
2	0	0	1	0	261227	-0.286304	-0.287058	-0.000134242	3	7.44547e-05	43	7.0717	3.85352e-08
2	0	0	1	0	261227	-0.283306	-0.284065	-0.000116754	3	7.44171e-05	43	7.3717	3.31656e-08
2	0	0	1	0	261228	-0.280307	-0.281052	-0.00010027	3	7.43847e-05	43	7.6715	2.81811e-08
2	0	0	1	0	261228	-0.277309	-0.278046	-8.39788e-05	3	7.43571e-05	43	7.9713	2.335e-08
2	0	0	1	0	261228	-0.27431	-0.275074	-6.80549e-05	3	7.43343e-05	43	8.2711	1.87202e-08
2	0	0	1	0	261228	-0.271312	-0.272056	-5.22213e-05	3	7.43163e-05	43	8.5709	1.42071e-08
2	0	0	1	0	261229	-0.264316	-0.265071	-1.61593e-05	3	7.42881e-05	44	9.2706	4.28336e-09
2	0	0	1	0	261230	-0.25732	-0.258058	1.93028e-05	3	7.42897e-05	44	0.000000000000000E+000	-4.98123e-09
2	1	0	1	0	261231	-0.250323	-0.251093	5.47944e-05	3	7.43071e-05	44	0.6997	-1.37585e-08
2	1	0	1	0	261231	-0.247325	-0.248068	6.97973e-05	3	7.43258e-05	44	0.9995	-1.73145e-08
2	1	0	1	0	261231	-0.244327	-0.245049	8.51713e-05	3	7.4349e-05	44	1.2993	-2.08711e-08
2	1	0	1	0	261231	-0.241328	-0.24208	9.99907e-05	3	7.43767e-05	44	1.5991	-2.42057e-08
2	1	0	1	0	261232	-0.234332	-0.235086	0.000135332	3	7.44549e-05	43	2.2987	-3.18146e-08
2	1	0	1	0	261232	-0.231334	-0.232098	0.000149924	3	7.44979e-05	43	2.5987	-3.47969e-08
2	1	0	1	0	261233	-0.228335	-0.229067	0.000165209	3	7.45452e-05	43	2.8985	-3.7844e-08
2	1	0	1	0	261233	-0.225337	-0.226091	0.00018054	3	7.4597e-05	43	3.1983	-4.08185e-08
2	1	0	1	0	261233	-0.222338	-0.223107	0.000195513	3	7.46535e-05	43	3.4981	-4.36202e-08
2	1	0	1	0	261234	-0.21934	-0.220106	0.000211177	3	7.47145e-05	43	3.7979	-4.64813e-08
2	1	0	1	0	261234	-0.216343	-0.217105	0.000226163	3	7.47801e-05	43	4.0978	-4.9101e-08
2	1	0	1	0	261234	-0.213343	-0.214128	0.00024187	3	7.48503e-05	43	4.3977	-5.1791e-08
2	1	0	1	0	261235	-0.210345	-0.211098	0.000257307	3	7.49251e-05	43	4.6975	-5.4317e-08
2	1	0	1	0	261235	-0.207347	-0.208075	0.000272728	3	7.50046e-05	43	4.9973	-5.67479e-08
2	1	0	1	0	261235	-0.204348	-0.205074	0.000287986	3	7.50886e-05	43	5.2971	-5.90586e-08
2	1	0	1	0	261235	-0.20135	-0.202098	0.000303788	3	7.51774e-05	43	5.597	-6.1395e-08
2	1	0	1	0	261236	-0.198351	-0.199108	0.000319331	3	7.52708e-05	43	5.8969	-6.35813e-08
2	1	0	1	0	261236	-0.195353	-0.196096	0.000335089	3	7.53689e-05	43	6.1967	-6.57096e-08
2	1	0	1	0	261236	-0.192355	-0.1931	0.000350608	3	7.54717e-05	43	6.4965	-6.77023e-08
2	1	0	1	0	261237	-0.189356	-0.190101	0.000366623	3	7.55793e-05	43	6.7963	-6.96954e-08
2	1	0	1	0	261237	-0.186357	-0.187095	0.000382562	3	7.56916e-05	43	7.0962	-7.15754e-08
2	1	0	1	0	261237	-0.183359	-0.184086	0.000398279	3	7.58087e-05	43	7.3961	-7.33177e-08
2	1	0	1	0	261238	-0.180361	-0.181094	0.000414161	3	7.59306e-05	43	7.6959	-7.5002e-08
2	1	0	1	0	261238	-0.177363	-0.178104	0.000430879	3	7.60573e-05	43	7.9957	-7.67413e-08
2	1	0	1	0	261238	-0.174364	-0.175114	0.000446935	3	7.61888e-05	43	8.2955	-7.82646e-08
2	1	0	1	0	261238	-0.171366	-0.172113	0.000463013	3	7.63253e-05	43	8.5953	-7.96904e-08
2	1	0	1	0	261239	-0.168368	-0.169126	0.000478938	3	7.64667e-05	43	8.8953	-8.10008e-08
2	1	0	1	0	261239	-0.165369	-0.166118	0.000496252	3	7.66129e-05	43	9.1951	-8.24366e-08
2	1	0	1	0	261239	-0.162371	-0.163123	0.000512392	3	7.67641e-05	43	9.4949	-8.35827e-08
2	1	0	1	0	261240	-0.159372	-0.160121	0.000529633	3	7.69204e-05	43	9.7947	-8.48055e-08
2	1	0	1	0	261240	-0.156374	-0.157102	0.000546586	3	7.70816e-05	43	10.0945	-8.58696e-08
2	1	0	1	0	261240	-0.153376	-0.154122	0.000563048	3	7.72481e-05	43	10.3945	-8.6778e-08
2	1	0	1	0	261241	-0.150377	-0.151124	0.000579819	3	7.74194e-05	43	10.6943	-8.76245e-08
2	1	0	1	0	261241	-0.147379	-0.148112	0.000596929	3	7.75958e-05	43	10.9941	-8.84124e-08
2	1	0	1	0	261241	-0.14438	-0.145147	0.000614797	3	7.77775e-05	43	11.2939	-8.92357e-08
2	1	0	1	0	261241	-0.141382	-0.142122	0.000631424	3	7.79643e-05	43	11.5937	-8.97393e-08
2	1	0	1	0	261242	-0.138384	-0.139125	0.000649376	3	7.81564e-05	43	11.8936	-9.03444e-08
2	1	0	1	0	261242	-0.135385	-0.136125	0.000667105	3	7.83538e-05	43	12.1935	-9.08099e-08
2	1	0	1	0	261242	-0.132387	-0.13313	0.000684752	3	7.85565e-05	43	12.4933	-9.11611e-08
2	1	0	1	0	261243	-0.129389	-0.130128	0.000702721	3	7.87644e-05	43	12.7931	-9.14434e-08
2	1	0	1	0	261243	-0.12639	-0.127146	0.000720516	3	7.89778e-05	43	13.0929	-9.1611e-08
2	1	0	1	0	261243	-0.123391	-0.124124	0.000739367	3	7.91967e-05	43	13.3928	-9.17729e-08
2	1	0	1	0	261244	-0.120393	-0.121129	0.000757079	3	7.9421e-05	43	13.6927	-9.17044e-08
2	1	0	1	0	261244	-0.117395	-0.118149	0.000775259	3	7.96509e-05	43	13.9925	-9.15964e-08
2	1	0	1	0	261244	-0.114397	-0.115161	0.000793945	3	7.98862e-05	43	14.2923	-9.14317e-08
2	1	0	1	0	261244	-0.111398	-0.112126	0.000813118	3	8.01272e-05	43	14.5921	-9.11713e-08
2	1	0	1	0	261245	-0.1084	-0.109141	0.000832416	3	8.03738e-05	43	14.8919	-9.08506e-08
2	1	0	1	0	261245	-0.105402	-0.106156	0.000851431	3	8.06264e-05	43	15.1919	-9.03845e-08
2	1	0	1	0	261245	-0.102403	-0.103163	0.000870565	3	8.08845e-05	43	15.4917	-8.98104e-08
2	1	0	1	0	261246	-0.0994048	-0.100144	0.000890694	3	8.11485e-05	43	15.7915	-8.9198e-08
2	1	0	1	0	261246	-0.0964064	-0.0971534	0.000909103	3	8.14182e-05	43	16.0913	-8.83224e-08
2	1	0	1	0	261246	-0.093408	-0.094141	0.000930086	3	8.16939e-05	43	16.3911	-8.75592e-08
2	1	0	1	0	261247	-0.0904096	-0.0911332	0.000949194	3	8.19758e-05	43	16.6911	-8.65031e-08
2	1	0	1	0	261247	-0.0874112	-0.0881575	0.000969698	3	8.22634e-05	43	16.9909	-8.54862e-08
2	1	0	1	0	261247	-0.0844129	-0.0851296	0.000990112	3	8.25571e-05	43	17.2907	-8.42878e-08
2	1	0	1	0	261247	-0.0814145	-0.0821518	0.00101	3	8.2857e-05	43	17.5905	-8.2973e-08
2	1	0	1	0	261248	-0.0784161	-0.0791336	0.00103039	3	8.31629e-05	43	17.8903	-8.15381e-08
2	1	0	1	0	261248	-0.0754182	-0.0761667	0.00105104	3	8.3475e-05	43	18.1902	-8.00542e-08
2	1	0	1	0	261248	-0.0724193	-0.073144	0.00107279	3	8.37936e-05	43	18.4901	-7.84679e-08
2	1	0	1	0	261249	-0.0694209	-0.0701579	0.00109364	3	8.41182e-05	43	18.7899	-7.67271e-08
2	1	0	1	0	261249	-0.0624247	-0.0632013	0.00114998	3	8.48979e-05	42	19.4895	-7.26804e-08
2	1	0	1	0	261250	-0.0594264	-0.0601992	0.00116943	3	8.52456e-05	42	19.7893	-7.03988e-08
2	1	0	1	0	261250	-0.056428	-0.0572309	0.0011908	3	8.55994e-05	42	20.0891	-6.81506e-08
2	1	0	1	0	261250	-0.0534296	-0.0542198	0.00121299	3	8.59598e-05	42	20.3891	-6.57682e-08
2	1	0	1	0	261251	-0.0504312	-0.0512237	0.00123389	3	8.63263e-05	42	20.6889	-6.32046e-08
2	1	0	1	0	261251	-0.0474328	-0.0482298	0.00125556	3	8.66996e-05	42	20.9887	-6.05553e-08
2	1	0	1	0	261251	-0.0444344	-0.0452229	0.00127869	3	8.70794e-05	42	21.2885	-5.78261e-08
2	1	0	1	0	261251	-0.0414361	-0.0422304	0.00130161	3	8.74661e-05	42	21.5883	-5.49674e-08
2	1	0	1	0	261252	-0.0384383	-0.039236	0.00132358	3	8.78597e-05	42	21.8882	-5.19321e-08
2	1	0	1	0	261252	-0.0354393	-0.0362217	0.00134697	3	8.82603e-05	42	22.1881	-4.87894e-08
2	1	0	1	0	261252	-0.0324409	-0.0332332	0.00137001	3	8.86677e-05	42	22.4879	-4.55298e-08
2	1	0	1	0	261253	-0.0294425	-0.0302424	0.00139382	3	8.9082e-05	42	22.7877	-4.21526e-08
2	1	0	1	0	261253	-0.0264441	-0.0272438	0.00141696	3	8.95033e-05	42	23.0875	-3.86033e-08
2	1	0	1	0	261253	-0.0234458	-0.024232	0.00144074	3	8.99319e-05	42	23.3874	-3.4912e-08
2	1	0	1	0	261254	-0.0204474	-0.0212294	0.00146504	3	9.03678e-05	42	23.6873	-3.1102e-08
2	1	0	1	0	261254	-0.017449	-0.0182397	0.00148884	3	9.08106e-05	42	23.9871	-2.7156e-08
2	1	0	1	0	261254	-0.0144506	-0.015258	0.00151427	3	9.12607e-05	42	24.2869	-2.31047e-08
2	1	0	1	0	261254	-0.0114522	-0.0122375	0.0015378	3	9.17182e-05	42	24.5867	-1.88189e-08
2	1	0	1	0	261255	-0.00845318	-0.00924521	0.00156213	3	9.21831e-05	42	24.8866	-1.44423e-08
2	1	0	1	0	261255	-0.00545547	-0.00624283	0.00158796	3	9.26556e-05	42	25.1865	-9.91337e-09
2	1	0	1	0	261255	-0.00245708	-0.00322256	0.00161273	3	9.31353e-05	42	25.4863	-5.19714e-09
2	1	0	0	1	261256	-1.65808e-05	-0.000736611	0.00163426	3	9.35377e-05	42	25.7342	-1.20382e-09
2	1	0	1	1	261256	-0.00275692	-0.00192592	0.00153302	3	9.39769e-05	42	26.0115	-2.95248e-09
2	1	0	1	1	261256	-0.0057553	-0.00491819	0.00149031	3	9.44299e-05	42	26.3113	-7.32962e-09
2	1	0	1	1	261256	-0.00875458	-0.00792962	0.00145363	3	9.48711e-05	42	26.6112	-1.15267e-08
2	1	0	1	1	261257	-0.0117521	-0.0109059	0.00141802	3	9.53014e-05	42	26.9111	-1.54648e-08
2	1	0	1	1	261257	-0.0147505	-0.0139156	0.00138437	3	9.57211e-05	42	27.2109	-1.92643e-08
2	1	0	1	1	261257	-0.0177488	-0.0169046	0.0013524	3	9.61313e-05	42	27.5107	-2.28619e-08
2	1	0	1	1	261258	-0.0207472	-0.0199062	0.00132081	3	9.65319e-05	42	27.8105	-2.62923e-08
2	1	0	1	1	261258	-0.0237456	-0.0229085	0.00128948	3	9.69231e-05	42	28.1103	-2.95401e-08
2	1	0	1	1	261258	-0.026744	-0.0259003	0.00126015	3	9.73056e-05	42	28.4103	-3.26384e-08
2	1	0	1	1	261259	-0.0297424	-0.0288943	0.0012315	3	9.76791e-05	42	28.7101	-3.55834e-08
2	1	0	1	1	261259	-0.0327407	-0.0318995	0.00120395	3	9.80442e-05	42	29.0099	-3.84052e-08
2	1	0	1	1	261259	-0.0357391	-0.034889	0.00117622	3	9.8401e-05	42	29.3097	-4.10371e-08
2	1	0	1	1	261259	-0.0387375	-0.0378876	0.00114961	3	9.87494e-05	42	29.6095	-4.35559e-08
2	1	0	1	1	261260	-0.041735	-0.0408627	0.00112311	3	9.90901e-05	42	29.9094	-4.58931e-08
2	1	0	1	1	261260	-0.0447343	-0.0438893	0.00109801	3	9.94231e-05	42	30.2093	-4.81909e-08
2	1	0	1	1	261260	-0.0477327	-0.0468884	0.00107217	3	9.97484e-05	42	30.5091	-5.02725e-08
2	1	0	1	1	261261	-0.050731	-0.0498961	0.00104711	3	0.000100066	42	30.8089	-5.22466e-08
2	1	0	1	1	261261	-0.0537294	-0.0528722	0.00102288	3	0.000100376	42	31.1087	-5.4082e-08
2	1	0	1	1	261261	-0.0567276	-0.0558619	0.000999501	3	0.000100679	42	31.4086	-5.5834e-08
2	1	0	1	1	261262	-0.0597262	-0.0588687	0.00097662	3	0.000100975	42	31.7085	-5.74923e-08
2	1	0	1	1	261262	-0.0627246	-0.0618541	0.000953042	3	0.000101264	42	32.0083	-5.89496e-08
2	1	0	1	1	261262	-0.065723	-0.0648545	0.000930255	3	0.000101546	42	32.3081	-6.03312e-08
2	1	0	1	1	261262	-0.0687213	-0.0678431	0.000907652	3	0.000101822	42	32.6079	-6.1578e-08
2	1	0	1	1	261263	-0.0717204	-0.0708569	0.00088564	3	0.000102091	42	32.9078	-6.27537e-08
2	1	0	1	1	261263	-0.0747181	-0.0738603	0.000864641	3	0.000102353	42	33.2077	-6.38626e-08
2	1	0	1	1	261263	-0.0777165	-0.0768415	0.000843195	3	0.000102609	42	33.5075	-6.47924e-08
2	1	0	1	1	261264	-0.0807149	-0.0798548	0.000822822	3	0.000102859	42	33.8073	-6.57063e-08
2	1	0	1	1	261264	-0.0837132	-0.082843	0.000801845	3	0.000103102	42	34.1071	-6.64273e-08
2	1	0	1	1	261264	-0.0867116	-0.0858342	0.000782013	3	0.00010334	42	34.4069	-6.71235e-08
2	1	0	1	1	261265	-0.08971	-0.0888473	0.000762457	3	0.000103571	42	34.7069	-6.77422e-08
2	1	0	1	1	261265	-0.0927084	-0.0918444	0.000742536	3	0.000103797	42	35.0067	-6.81978e-08
2	1	0	1	1	261265	-0.0957068	-0.0948411	0.000722656	3	0.000104016	42	35.3065	-6.85375e-08
2	1	0	1	1	261265	-0.0987052	-0.0978533	0.00070412	3	0.00010423	42	35.6063	-6.89005e-08
2	1	0	1	1	261266	-0.101704	-0.100832	0.000685699	3	0.000104438	42	35.9061	-6.91407e-08
2	1	0	1	1	261266	-0.104702	-0.103834	0.000666608	3	0.000104641	42	36.2061	-6.92168e-08
2	1	0	1	1	261266	-0.1077	-0.106815	0.000649057	3	0.000104838	42	36.5059	-6.93292e-08
2	1	0	1	1	261267	-0.110699	-0.10983	0.000629747	3	0.00010503	42	36.8057	-6.91648e-08
2	1	0	1	1	261267	-0.113697	-0.112828	0.000612296	3	0.000105216	42	37.1055	-6.90844e-08
2	1	0	1	1	261267	-0.116695	-0.115816	0.000594272	3	0.000105397	42	37.4053	-6.88262e-08
2	1	0	1	1	261268	-0.119694	-0.118821	0.000576888	3	0.000105572	42	37.7052	-6.85464e-08
2	1	0	1	1	261268	-0.122692	-0.121826	0.0005599	3	0.000105743	42	38.0051	-6.82103e-08
2	1	0	1	1	261268	-0.125691	-0.124825	0.000543143	3	0.000105908	42	38.3049	-6.7798e-08
2	1	0	1	1	261268	-0.128689	-0.127839	0.000526388	3	0.000106068	42	38.6047	-6.72928e-08
2	1	0	1	1	261269	-0.131687	-0.130822	0.000509039	3	0.000106224	42	38.9045	-6.65933e-08
2	1	0	1	1	261269	-0.134686	-0.133812	0.000493194	3	0.000106374	42	39.2044	-6.59952e-08
2	1	0	1	1	261269	-0.137684	-0.136819	0.000476495	3	0.000106519	42	39.5043	-6.51936e-08
2	1	0	1	1	261270	-0.140683	-0.13981	0.000460989	3	0.00010666	42	39.8041	-6.4451e-08
2	1	0	1	1	261270	-0.14568	-0.144808	0.000434848	3	0.000106884	42	40.3038	-6.29696e-08
2	1	0	1	1	261271	-0.150677	-0.149805	0.000409884	3	0.000107099	43	40.8035	-6.14025e-08
2	1	0	1	1	261271	-0.153675	-0.152809	0.000394275	3	0.000107219	43	41.1033	-6.0249e-08
2	1	0	1	1	261271	-0.156673	-0.155793	0.000379309	3	0.000107335	43	41.4032	-5.90938e-08
2	1	0	1	1	261272	-0.159672	-0.158764	0.000364141	3	0.000107447	43	41.7031	-5.78126e-08
2	1	0	1	1	261272	-0.162671	-0.161771	0.00034891	3	0.000107554	43	42.0029	-5.64436e-08
2	1	0	1	1	261272	-0.165669	-0.164784	0.000334155	3	0.000107656	43	42.3027	-5.50635e-08
2	1	0	1	1	261272	-0.168667	-0.167774	0.000318931	3	0.000107754	43	42.6025	-5.35085e-08
2	1	0	1	1	261273	-0.171666	-0.170802	0.000304439	3	0.000107847	43	42.9024	-5.19988e-08
2	1	0	1	1	261273	-0.174664	-0.17379	0.000290255	3	0.000107937	43	43.2023	-5.04435e-08
2	1	0	1	1	261273	-0.177663	-0.176784	0.000275299	3	0.000108021	43	43.5021	-4.86685e-08
2	1	0	1	1	261274	-0.180661	-0.179774	0.00026085	3	0.000108102	43	43.8019	-4.68941e-08
2	1	0	1	1	261274	-0.183659	-0.182771	0.000246292	3	0.000108178	43	44.1017	-4.5015e-08
2	1	0	1	1	261274	-0.186659	-0.185771	0.000232268	3	0.000108249	43	44.4016	-4.31487e-08
2	1	0	1	1	261275	-0.189656	-0.188773	0.00021776	3	0.000108317	43	44.7015	-4.11072e-08
2	1	0	1	1	261275	-0.192654	-0.191797	0.000203547	3	0.00010838	43	45.0013	-3.90396e-08
2	1	0	1	1	261275	-0.195653	-0.194775	0.000189502	3	0.000108439	43	45.3011	-3.69102e-08
2	1	0	1	1	261275	-0.198651	-0.197772	0.000175269	3	0.000108494	43	45.6009	-3.46632e-08
2	1	0	1	1	261276	-0.20165	-0.200762	0.00016135	3	0.000108544	43	45.9007	-3.2393e-08
2	1	0	1	1	261276	-0.204648	-0.203762	0.000147216	3	0.00010859	43	46.2007	-2.9997e-08
2	1	0	1	1	261276	-0.207646	-0.206752	0.000133023	3	0.000108632	43	46.5005	-2.75027e-08
2	1	0	1	1	261277	-0.210645	-0.209763	0.000118904	3	0.00010867	43	46.8003	-2.49417e-08
2	1	0	1	1	261277	-0.213643	-0.212769	0.000105178	3	0.000108704	43	47.1001	-2.23787e-08
2	1	0	1	1	261277	-0.216642	-0.215765	9.11014e-05	3	0.000108733	43	47.3999	-1.96565e-08
2	1	0	1	1	261278	-0.219639	-0.21875	7.72074e-05	3	0.000108758	43	47.6998	-1.68891e-08
2	1	0	1	1	261278	-0.222638	-0.221762	6.33407e-05	3	0.000108779	43	47.9997	-1.40466e-08
2	1	0	1	1	261278	-0.225637	-0.224757	4.93823e-05	3	0.000108796	43	48.2995	-1.1099e-08
2	1	0	1	1	261279	-0.232633	-0.231743	1.7109e-05	3	0.000108823	44	48.9991	-3.96489e-09
2	1	0	1	1	261279	-0.235631	-0.234752	2.76695e-06	3	0.000108826	44	49.2989	-6.49546e-10
2	0	0	1	1	261280	-0.246625	-0.245745	-4.82398e-05	3	0.000108809	44	0.5996	1.18547e-08
2	0	0	1	1	261281	-0.249474	-0.248614	-6.1495e-05	3	0.000108793	44	0.8845	1.52885e-08
2	0	0	0	1	261281	-0.249599	-0.248667	-6.19683e-05	3	0.000108793	44	0.8943	1.54095e-08