File: data_dir/600_A_immertest4/600_A_08_CP_C04.mpt
EC-Lab ASCII FILE
Nb header lines : 57

Chronopotentiometry

Run on channel : 4 (SN 13148)
User :
Electrode connection : standard
Potential control : Ewe
Ewe ctrl range : min = -1.00 V, max = 1.00 V
Ewe,I filtering : 5 Hz
Safety Limits :
	Do not start on E overload
Channel : Floating
Acquisition started on : 07/01/2024 16:51:31.465
Loaded Setting File :  C:\Users\mAtsuhitA\Desktop\Oyafuso\20240624_???????4\1540_A.mps
Saved on :
	File : 600_A_08_CP_C04.mpr
	Directory : C:\Users\mAtsuhitA\Desktop\Oyafuso\20240624_???????4\600_A\
	Host : 192.109.209.100
Device : VSP-300 (SN 0960)
Address : USB
EC-Lab for windows v11.50 (software)
Internet server v11.50 (firmware)
Command interpretor v11.50 (firmware)
Electrode material :
Initial state :
Electrolyte :
Comments :
Cable : standard
Electrode surface area : 0.001 cm2
Characteristic mass : 0.001 g
Equivalent Weight : 0.000 g/eq.
Density : 0.000 g/cm3
Volume (V) : 0.001 cm3
Text export
   Mode : Standard
   Time format : Elapsed
Cycle Definition : Charge/Discharge alternance
Is                  200.000
unit Is             nA
vs.                 <None>
ts (h:m:s)          1000:40:0.0000
EM (V)              0.000
dQM                 200.133
unit dQM            uA.h
record              Ewe
dEs (mV)            10.00
dts (s)             10.0000
E range min (V)     -1.000
E range max (V)     1.000
I Range             1 uA
Bandwidth           8
goto Ns'            0
nc cycles           0

mode	ox/red	error	control changes	Ns changes	counter inc.	Ns	time/s	control/mA	Ewe/V	I/mA	dQ/C	(Q-Qo)/C	half cycle	Q charge/discharge/mA.h	I Range	Energy charge/W.h	Energy discharge/W.h	Capacitance charge/uF	Capacitance discharge/uF	step time/s	Q discharge/mA.h	Q charge/mA.h	Capacity/mA.h	Efficiency/%	cycle number	P/W
1	1	0	1	0	0	0	261881	0.0002	-0.245828	-8.98237e-07	0.0000000E+000	0.0000000E+000	0	0.000000000000000E+000	43	0.000000000000000E+000	0.000000000000000E+000	0.000000000000000E+000	0.000000000000000E+000	261881	0.000000000000000E+000	0.000000000000000E+000	0.000000000000000E+000	0.0000000E+000	0.000000000000000E+000	2.20812e-10
1	1	0	1	0	0	0	262163	0.0002	-0.204107	0.000199806	5.63227e-05	5.63227e-05	0	1.56452e-05	43	3.23523e-09	0.000000000000000E+000	1782.12	0.000000000000000E+000	262163	0.000000000000000E+000	1.56452e-05	1.56452e-05	0.0000000E+000	0.000000000000000E+000	-4.07818e-08
1	1	0	1	0	0	0	262473	0.0002	-0.199991	0.00019976	0.000118251	0.000118251	0	3.28475e-05	43	6.70286e-09	0.000000000000000E+000	3310.48	0.000000000000000E+000	262473	0.000000000000000E+000	3.28475e-05	3.28475e-05	0.0000000E+000	0.000000000000000E+000	-3.99503e-08
1	1	0	1	0	0	0	262783	0.0002	-0.197349	0.000199772	0.000180185	0.000180185	0	5.00513e-05	43	1.01188e-08	0.000000000000000E+000	4696.93	0.000000000000000E+000	262783	0.000000000000000E+000	5.00513e-05	5.00513e-05	0.0000000E+000	0.000000000000000E+000	-3.94248e-08
1	1	0	1	0	0	0	263093	0.0002	-0.194799	0.000199753	0.00024211	0.00024211	0	6.72527e-05	43	1.34891e-08	0.000000000000000E+000	5917.73	0.000000000000000E+000	263093	0.000000000000000E+000	6.72527e-05	6.72527e-05	0.0000000E+000	0.000000000000000E+000	-3.89115e-08
1	1	0	1	0	0	0	263403	0.0002	-0.192241	0.000199749	0.000304035	0.000304035	0	8.44542e-05	43	1.68152e-08	0.000000000000000E+000	6994.02	0.000000000000000E+000	263403	0.000000000000000E+000	8.44542e-05	8.44542e-05	0.0000000E+000	0.000000000000000E+000	-3.83998e-08
1	1	0	1	0	0	0	263713	0.0002	-0.190694	0.00019973	0.000365961	0.000365961	0	0.000101656	43	2.01094e-08	0.000000000000000E+000	8129.38	0.000000000000000E+000	263713	0.000000000000000E+000	0.000101656	0.000101656	0.0000000E+000	0.000000000000000E+000	-3.80873e-08
1	1	0	1	0	0	0	264023	0.0002	-0.189518	0.000199764	0.000427885	0.000427885	0	0.000118857	43	2.33805e-08	0.000000000000000E+000	9263	0.000000000000000E+000	264023	0.000000000000000E+000	0.000118857	0.000118857	0.0000000E+000	0.000000000000000E+000	-3.78589e-08
1	1	0	1	0	0	0	264333	0.0002	-0.187938	0.000199726	0.000489811	0.000489811	0	0.000136059	43	2.6622e-08	0.000000000000000E+000	10252.7	0.000000000000000E+000	264333	0.000000000000000E+000	0.000136059	0.000136059	0.0000000E+000	0.000000000000000E+000	-3.7536e-08
1	1	0	1	0	0	0	264643	0.0002	-0.187403	0.000199733	0.000551733	0.000551733	0	0.000153259	43	2.98488e-08	0.000000000000000E+000	11421.1	0.000000000000000E+000	264643	0.000000000000000E+000	0.000153259	0.000153259	0.0000000E+000	0.000000000000000E+000	-3.74307e-08
1	1	0	1	0	0	0	264953	0.0002	-0.186746	0.000199741	0.000613658	0.000613658	0	0.000170461	43	3.30669e-08	0.000000000000000E+000	12532.6	0.000000000000000E+000	264953	0.000000000000000E+000	0.000170461	0.000170461	0.0000000E+000	0.000000000000000E+000	-3.73009e-08
1	1	0	1	0	0	0	265263	0.0002	-0.185666	0.000199772	0.000675581	0.000675581	0	0.000187661	43	3.62699e-08	0.000000000000000E+000	13499.4	0.000000000000000E+000	265263	0.000000000000000E+000	0.000187661	0.000187661	0.0000000E+000	0.000000000000000E+000	-3.70908e-08
1	1	0	1	0	0	0	265573	0.0002	-0.185754	0.000199753	0.0007375	0.0007375	0	0.000204861	43	3.94628e-08	0.000000000000000E+000	14762.5	0.000000000000000E+000	265573	0.000000000000000E+000	0.000204861	0.000204861	0.0000000E+000	0.000000000000000E+000	-3.71048e-08
1	1	0	1	0	0	0	265883	0.0002	-0.185414	0.000199741	0.000799423	0.000799423	0	0.000222062	43	4.26597e-08	0.000000000000000E+000	15893.9	0.000000000000000E+000	265883	0.000000000000000E+000	0.000222062	0.000222062	0.0000000E+000	0.000000000000000E+000	-3.70348e-08
1	1	0	1	0	0	0	266193	0.0002	-0.184578	0.000199745	0.000861344	0.000861344	0	0.000239262	43	4.584e-08	0.000000000000000E+000	16845	0.000000000000000E+000	266193	0.000000000000000E+000	0.000239262	0.000239262	0.0000000E+000	0.000000000000000E+000	-3.68685e-08
1	1	0	1	0	0	0	266503	0.0002	-0.184001	0.000199714	0.000923267	0.000923267	0	0.000256463	43	4.90101e-08	0.000000000000000E+000	17854.7	0.000000000000000E+000	266503	0.000000000000000E+000	0.000256463	0.000256463	0.0000000E+000	0.000000000000000E+000	-3.67477e-08
1	1	0	1	0	0	0	266813	0.0002	-0.184295	0.000199649	0.000985178	0.000985178	0	0.000273661	43	5.21768e-08	0.000000000000000E+000	19160.9	0.000000000000000E+000	266813	0.000000000000000E+000	0.000273661	0.000273661	0.0000000E+000	0.000000000000000E+000	-3.67945e-08
1	1	0	1	0	0	0	267123	0.0002	-0.184761	0.000199653	0.00104708	0.00104708	0	0.000290856	43	5.53484e-08	0.000000000000000E+000	20551.1	0.000000000000000E+000	267123	0.000000000000000E+000	0.000290856	0.000290856	0.0000000E+000	0.000000000000000E+000	-3.68882e-08
1	1	0	1	0	0	0	267433	0.0002	-0.18478	0.000199669	0.00110898	0.00110898	0	0.00030805	43	5.8526e-08	0.000000000000000E+000	21774.1	0.000000000000000E+000	267433	0.000000000000000E+000	0.00030805	0.00030805	0.0000000E+000	0.000000000000000E+000	-3.68948e-08
1	1	0	1	0	0	0	267743	0.0002	-0.18507	0.000199688	0.00117088	0.00117088	0	0.000325244	43	6.17042e-08	0.000000000000000E+000	23121.2	0.000000000000000E+000	267743	0.000000000000000E+000	0.000325244	0.000325244	0.0000000E+000	0.000000000000000E+000	-3.69563e-08
1	1	0	1	0	0	0	268053	0.0002	-0.185593	0.000199676	0.00123277	0.00123277	0	0.000342437	43	6.48913e-08	0.000000000000000E+000	24597.5	0.000000000000000E+000	268053	0.000000000000000E+000	0.000342437	0.000342437	0.0000000E+000	0.000000000000000E+000	-3.70586e-08
1	1	0	1	0	0	0	268363	0.0002	-0.186468	0.000199676	0.00129467	0.00129467	0	0.00035963	43	6.80897e-08	0.000000000000000E+000	26291.1	0.000000000000000E+000	268363	0.000000000000000E+000	0.00035963	0.00035963	0.0000000E+000	0.000000000000000E+000	-3.72332e-08
1	1	0	1	0	0	0	268673	0.0002	-0.186823	0.000199684	0.00135656	0.00135656	0	0.000376822	43	7.12988e-08	0.000000000000000E+000	27748	0.000000000000000E+000	268673	0.000000000000000E+000	0.000376822	0.000376822	0.0000000E+000	0.000000000000000E+000	-3.73055e-08
1	1	0	1	0	0	0	268983	0.0002	-0.187518	0.000199634	0.00141845	0.00141845	0	0.000394013	43	7.45175e-08	0.000000000000000E+000	29432.3	0.000000000000000E+000	268983	0.000000000000000E+000	0.000394013	0.000394013	0.0000000E+000	0.000000000000000E+000	-3.74349e-08
1	1	0	1	0	0	0	269293	0.0002	-0.188025	0.000199657	0.00148034	0.00148034	0	0.000411205	43	7.77466e-08	0.000000000000000E+000	31043.6	0.000000000000000E+000	269293	0.000000000000000E+000	0.000411205	0.000411205	0.0000000E+000	0.000000000000000E+000	-3.75406e-08
1	1	0	1	0	0	0	269603	0.0002	-0.188835	0.00019963	0.00154223	0.00154223	0	0.000428396	43	8.09911e-08	0.000000000000000E+000	32899.8	0.000000000000000E+000	269603	0.000000000000000E+000	0.000428396	0.000428396	0.0000000E+000	0.000000000000000E+000	-3.76972e-08
1	1	0	1	0	0	0	269913	0.0002	-0.189675	0.000199604	0.00160411	0.00160411	0	0.000445587	43	8.42472e-08	0.000000000000000E+000	34844.5	0.000000000000000E+000	269913	0.000000000000000E+000	0.000445587	0.000445587	0.0000000E+000	0.000000000000000E+000	-3.78598e-08
1	1	0	1	0	0	0	270223	0.0002	-0.190282	0.0001996	0.001666	0.001666	0	0.000462778	43	8.75146e-08	0.000000000000000E+000	36672.3	0.000000000000000E+000	270223	0.000000000000000E+000	0.000462778	0.000462778	0.0000000E+000	0.000000000000000E+000	-3.79802e-08
1	1	0	1	0	0	0	270533	0.0002	-0.190511	0.000199615	0.00172789	0.00172789	0	0.000479969	43	9.07885e-08	0.000000000000000E+000	38227.4	0.000000000000000E+000	270533	0.000000000000000E+000	0.000479969	0.000479969	0.0000000E+000	0.000000000000000E+000	-3.80289e-08
1	1	0	1	0	0	0	270843	0.0002	-0.191084	0.000199607	0.00178977	0.00178977	0	0.000497159	43	9.40694e-08	0.000000000000000E+000	40104.6	0.000000000000000E+000	270843	0.000000000000000E+000	0.000497159	0.000497159	0.0000000E+000	0.000000000000000E+000	-3.81417e-08
1	1	0	1	0	0	0	271153	0.0002	-0.191458	0.000199581	0.00185166	0.00185166	0	0.000514349	43	9.73591e-08	0.000000000000000E+000	41842.1	0.000000000000000E+000	271153	0.000000000000000E+000	0.000514349	0.000514349	0.0000000E+000	0.000000000000000E+000	-3.82113e-08
1	1	0	1	0	0	0	271463	0.0002	-0.191542	0.000199596	0.00191354	0.00191354	0	0.000531539	43	1.00654e-07	0.000000000000000E+000	43322.7	0.000000000000000E+000	271463	0.000000000000000E+000	0.000531539	0.000531539	0.0000000E+000	0.000000000000000E+000	-3.8231e-08
1	1	0	1	0	0	0	271773	0.0002	-0.191523	0.000199623	0.00197542	0.00197542	0	0.000548729	43	1.03945e-07	0.000000000000000E+000	44704.5	0.000000000000000E+000	271773	0.000000000000000E+000	0.000548729	0.000548729	0.0000000E+000	0.000000000000000E+000	-3.82323e-08
1	1	0	1	0	0	0	272083	0.0002	-0.192012	0.000199619	0.00203731	0.00203731	0	0.000565919	43	1.07244e-07	0.000000000000000E+000	46620.6	0.000000000000000E+000	272083	0.000000000000000E+000	0.000565919	0.000565919	0.0000000E+000	0.000000000000000E+000	-3.83291e-08
1	1	0	1	0	0	0	272393	0.0002	-0.192554	0.000199588	0.00209919	0.00209919	0	0.000583109	43	1.1055e-07	0.000000000000000E+000	48640.1	0.000000000000000E+000	272393	0.000000000000000E+000	0.000583109	0.000583109	0.0000000E+000	0.000000000000000E+000	-3.84315e-08
1	1	0	1	0	0	0	272703	0.0002	-0.192485	0.000199604	0.00216108	0.00216108	0	0.0006003	43	1.13859e-07	0.000000000000000E+000	49994.5	0.000000000000000E+000	272703	0.000000000000000E+000	0.0006003	0.0006003	0.0000000E+000	0.000000000000000E+000	-3.84207e-08
1	1	0	1	0	0	0	273013	0.0002	-0.192851	0.000199596	0.00222296	0.00222296	0	0.00061749	43	1.17169e-07	0.000000000000000E+000	51865.9	0.000000000000000E+000	273013	0.000000000000000E+000	0.00061749	0.00061749	0.0000000E+000	0.000000000000000E+000	-3.84924e-08
1	1	0	1	0	0	0	273323	0.0002	-0.192985	0.000199611	0.00228485	0.00228485	0	0.00063468	43	1.20485e-07	0.000000000000000E+000	53476.5	0.000000000000000E+000	273323	0.000000000000000E+000	0.00063468	0.00063468	0.0000000E+000	0.000000000000000E+000	-3.8522e-08
1	1	0	1	0	0	0	273633	0.0002	-0.193084	0.000199642	0.00234673	0.00234673	0	0.00065187	43	1.23803e-07	0.000000000000000E+000	55052.8	0.000000000000000E+000	273633	0.000000000000000E+000	0.00065187	0.00065187	0.0000000E+000	0.000000000000000E+000	-3.85477e-08
1	1	0	1	0	0	0	273943	0.0002	-0.193279	0.000199623	0.00240861	0.00240861	0	0.00066906	43	1.27124e-07	0.000000000000000E+000	56763.8	0.000000000000000E+000	273943	0.000000000000000E+000	0.00066906	0.00066906	0.0000000E+000	0.000000000000000E+000	-3.85829e-08
1	1	0	1	0	0	0	274253	0.0002	-0.193481	0.000199634	0.0024705	0.0024705	0	0.000686249	43	1.30448e-07	0.000000000000000E+000	58501.2	0.000000000000000E+000	274253	0.000000000000000E+000	0.000686249	0.000686249	0.0000000E+000	0.000000000000000E+000	-3.86255e-08
1	1	0	1	0	0	0	274563	0.0002	-0.193485	0.000199604	0.00253238	0.00253238	0	0.000703439	43	1.33777e-07	0.000000000000000E+000	59972	0.000000000000000E+000	274563	0.000000000000000E+000	0.000703439	0.000703439	0.0000000E+000	0.000000000000000E+000	-3.86204e-08
1	1	0	1	0	0	0	274873	0.0002	-0.193806	0.000199592	0.00259426	0.00259426	0	0.000720628	43	1.37105e-07	0.000000000000000E+000	61907.7	0.000000000000000E+000	274873	0.000000000000000E+000	0.000720628	0.000720628	0.0000000E+000	0.000000000000000E+000	-3.86821e-08
1	1	0	1	0	0	0	275183	0.0002	-0.19347	0.000199588	0.00265614	0.00265614	0	0.000737818	43	1.40434e-07	0.000000000000000E+000	62880.2	0.000000000000000E+000	275183	0.000000000000000E+000	0.000737818	0.000737818	0.0000000E+000	0.000000000000000E+000	-3.86143e-08
1	1	0	1	0	0	0	275493	0.0002	-0.193779	0.000199611	0.00271802	0.00271802	0	0.000755006	43	1.43762e-07	0.000000000000000E+000	64819.7	0.000000000000000E+000	275493	0.000000000000000E+000	0.000755006	0.000755006	0.0000000E+000	0.000000000000000E+000	-3.86805e-08
1	1	0	1	0	0	0	275803	0.0002	-0.194489	0.000199615	0.0027799	0.0027799	0	0.000772195	43	1.47099e-07	0.000000000000000E+000	67437.5	0.000000000000000E+000	275803	0.000000000000000E+000	0.000772195	0.000772195	0.0000000E+000	0.000000000000000E+000	-3.8823e-08
1	1	0	1	0	0	0	276113	0.0002	-0.194367	0.000199592	0.00284178	0.00284178	0	0.000789384	43	1.50441e-07	0.000000000000000E+000	68734.9	0.000000000000000E+000	276113	0.000000000000000E+000	0.000789384	0.000789384	0.0000000E+000	0.000000000000000E+000	-3.87942e-08
1	1	0	1	0	0	0	276423	0.0002	-0.194436	0.0001996	0.00290366	0.00290366	0	0.000806573	43	1.53783e-07	0.000000000000000E+000	70348.5	0.000000000000000E+000	276423	0.000000000000000E+000	0.000806573	0.000806573	0.0000000E+000	0.000000000000000E+000	-3.88094e-08
1	1	0	1	0	0	0	276733	0.0002	-0.194982	0.00019963	0.00296554	0.00296554	0	0.000823761	43	1.57131e-07	0.000000000000000E+000	72810.8	0.000000000000000E+000	276733	0.000000000000000E+000	0.000823761	0.000823761	0.0000000E+000	0.000000000000000E+000	-3.89243e-08
1	1	0	1	0	0	0	277043	0.0002	-0.194772	0.000199619	0.00302742	0.00302742	0	0.00084095	43	1.60483e-07	0.000000000000000E+000	73948.8	0.000000000000000E+000	277043	0.000000000000000E+000	0.00084095	0.00084095	0.0000000E+000	0.000000000000000E+000	-3.88802e-08
1	1	0	1	0	0	0	277353	0.0002	-0.194707	0.000199604	0.0030893	0.0030893	0	0.000858138	43	1.63828e-07	0.000000000000000E+000	75340.8	0.000000000000000E+000	277353	0.000000000000000E+000	0.000858138	0.000858138	0.0000000E+000	0.000000000000000E+000	-3.88642e-08
1	1	0	1	0	0	0	277663	0.0002	-0.194172	0.000199588	0.00315118	0.00315118	0	0.000875327	43	1.6717e-07	0.000000000000000E+000	75861	0.000000000000000E+000	277663	0.000000000000000E+000	0.000875327	0.000875327	0.0000000E+000	0.000000000000000E+000	-3.87546e-08
1	1	0	1	0	0	0	277973	0.0002	-0.194321	0.0001996	0.00321305	0.00321305	0	0.000892515	43	1.70508e-07	0.000000000000000E+000	77628.9	0.000000000000000E+000	277973	0.000000000000000E+000	0.000892515	0.000892515	0.0000000E+000	0.000000000000000E+000	-3.87865e-08
1	1	0	1	0	0	0	278283	0.0002	-0.19415	0.000199581	0.00327493	0.00327493	0	0.000909703	43	1.73846e-07	0.000000000000000E+000	78796.8	0.000000000000000E+000	278283	0.000000000000000E+000	0.000909703	0.000909703	0.0000000E+000	0.000000000000000E+000	-3.87485e-08
1	1	0	1	0	0	0	278593	0.0002	-0.194283	0.000199611	0.00333681	0.00333681	0	0.000926891	43	1.77185e-07	0.000000000000000E+000	80544.6	0.000000000000000E+000	278593	0.000000000000000E+000	0.000926891	0.000926891	0.0000000E+000	0.000000000000000E+000	-3.87811e-08
1	1	0	1	0	0	0	278903	0.0002	-0.193932	0.000199676	0.00339869	0.00339869	0	0.00094408	43	1.80522e-07	0.000000000000000E+000	81348.5	0.000000000000000E+000	278903	0.000000000000000E+000	0.00094408	0.00094408	0.0000000E+000	0.000000000000000E+000	-3.87236e-08
1	1	0	1	0	0	0	279213	0.0002	-0.193604	0.000199619	0.00346057	0.00346057	0	0.000961268	43	1.83854e-07	0.000000000000000E+000	82183.7	0.000000000000000E+000	279213	0.000000000000000E+000	0.000961268	0.000961268	0.0000000E+000	0.000000000000000E+000	-3.86469e-08
1	1	0	1	0	0	0	279523	0.0002	-0.193455	0.000199634	0.00352244	0.00352244	0	0.000978456	43	1.87179e-07	0.000000000000000E+000	83358.4	0.000000000000000E+000	279523	0.000000000000000E+000	0.000978456	0.000978456	0.0000000E+000	0.000000000000000E+000	-3.86202e-08
1	1	0	1	0	0	0	279833	0.0002	-0.193226	0.000199592	0.00358432	0.00358432	0	0.000995645	43	1.90502e-07	0.000000000000000E+000	84365.4	0.000000000000000E+000	279833	0.000000000000000E+000	0.000995645	0.000995645	0.0000000E+000	0.000000000000000E+000	-3.85663e-08
1	1	0	1	0	0	0	280143	0.0002	-0.193214	0.000199573	0.0036462	0.0036462	0	0.00101283	43	1.93822e-07	0.000000000000000E+000	85798.7	0.000000000000000E+000	280143	0.000000000000000E+000	0.00101283	0.00101283	0.0000000E+000	0.000000000000000E+000	-3.85603e-08
1	1	0	1	0	0	0	280453	0.0002	-0.193352	0.000199562	0.00370807	0.00370807	0	0.00103002	43	1.97146e-07	0.000000000000000E+000	87537.8	0.000000000000000E+000	280453	0.000000000000000E+000	0.00103002	0.00103002	0.0000000E+000	0.000000000000000E+000	-3.85856e-08
1	1	0	1	0	0	0	280763	0.0002	-0.193226	0.000199604	0.00376995	0.00376995	0	0.00104721	43	2.00466e-07	0.000000000000000E+000	88734.5	0.000000000000000E+000	280763	0.000000000000000E+000	0.00104721	0.00104721	0.0000000E+000	0.000000000000000E+000	-3.85685e-08
1	1	0	1	0	0	0	281073	0.0002	-0.193966	0.000199581	0.00383182	0.00383182	0	0.00106439	43	2.03788e-07	0.000000000000000E+000	91791.2	0.000000000000000E+000	281073	0.000000000000000E+000	0.00106439	0.00106439	0.0000000E+000	0.000000000000000E+000	-3.87119e-08
1	1	0	1	0	0	0	281383	0.0002	-0.193329	0.000199565	0.00389369	0.00389369	0	0.00108158	43	2.07113e-07	0.000000000000000E+000	91870.2	0.000000000000000E+000	281383	0.000000000000000E+000	0.00108158	0.00108158	0.0000000E+000	0.000000000000000E+000	-3.85817e-08
1	1	0	1	0	0	0	281693	0.0002	-0.193069	0.000199604	0.00395557	0.00395557	0	0.00109877	43	2.10433e-07	0.000000000000000E+000	92761.9	0.000000000000000E+000	281693	0.000000000000000E+000	0.00109877	0.00109877	0.0000000E+000	0.000000000000000E+000	-3.85373e-08
1	1	0	1	0	0	0	282003	0.0002	-0.193115	0.000199592	0.00401744	0.00401744	0	0.00111596	43	2.13752e-07	0.000000000000000E+000	94314.1	0.000000000000000E+000	282003	0.000000000000000E+000	0.00111596	0.00111596	0.0000000E+000	0.000000000000000E+000	-3.85442e-08
1	1	0	1	0	0	0	282313	0.0002	-0.19457	0.000199585	0.00407932	0.00407932	0	0.00113314	43	2.17076e-07	0.000000000000000E+000	99152.8	0.000000000000000E+000	282313	0.000000000000000E+000	0.00113314	0.00113314	0.0000000E+000	0.000000000000000E+000	-3.88331e-08
1	1	0	1	0	0	0	282623	0.0002	-0.193417	0.0001996	0.00414119	0.00414119	0	0.00115033	43	2.20409e-07	0.000000000000000E+000	97912.6	0.000000000000000E+000	282623	0.000000000000000E+000	0.00115033	0.00115033	0.0000000E+000	0.000000000000000E+000	-3.86059e-08
1	1	0	1	0	0	0	282933	0.0002	-0.192916	0.000199565	0.00420306	0.00420306	0	0.00116752	43	2.23727e-07	0.000000000000000E+000	98214	0.000000000000000E+000	282933	0.000000000000000E+000	0.00116752	0.00116752	0.0000000E+000	0.000000000000000E+000	-3.84994e-08
1	1	0	1	0	0	0	283243	0.0002	-0.192722	0.000199607	0.00426493	0.00426493	0	0.0011847	43	2.27042e-07	0.000000000000000E+000	99208.4	0.000000000000000E+000	283243	0.000000000000000E+000	0.0011847	0.0011847	0.0000000E+000	0.000000000000000E+000	-3.84687e-08
1	1	0	1	0	0	0	283553	0.0002	-0.192424	0.000199634	0.00432681	0.00432681	0	0.00120189	43	2.30352e-07	0.000000000000000E+000	99955.2	0.000000000000000E+000	283553	0.000000000000000E+000	0.00120189	0.00120189	0.0000000E+000	0.000000000000000E+000	-3.84144e-08
1	1	0	1	0	0	0	283863	0.0002	-0.192481	0.000199584	0.00438868	0.00438868	0	0.00121908	43	2.33658e-07	0.000000000000000E+000	101519	0.000000000000000E+000	283863	0.000000000000000E+000	0.00121908	0.00121908	0.0000000E+000	0.000000000000000E+000	-3.84162e-08
1	1	0	1	0	0	0	284173	0.0002	-0.192745	0.000199542	0.00445055	0.00445055	0	0.00123626	43	2.36968e-07	0.000000000000000E+000	103581	0.000000000000000E+000	284173	0.000000000000000E+000	0.00123626	0.00123626	0.0000000E+000	0.000000000000000E+000	-3.84607e-08
1	1	0	1	0	0	0	284483	0.0002	-0.193042	0.000199607	0.00451242	0.00451242	0	0.00125345	43	2.40282e-07	0.000000000000000E+000	105754	0.000000000000000E+000	284483	0.000000000000000E+000	0.00125345	0.00125345	0.0000000E+000	0.000000000000000E+000	-3.85327e-08
1	1	0	1	0	0	0	284793	0.0002	-0.192779	0.000199611	0.00457429	0.00457429	0	0.00127064	43	2.43598e-07	0.000000000000000E+000	106547	0.000000000000000E+000	284793	0.000000000000000E+000	0.00127064	0.00127064	0.0000000E+000	0.000000000000000E+000	-3.84808e-08
1	1	0	1	0	0	0	285103	0.0002	-0.193733	0.000199581	0.00463617	0.00463617	0	0.00128782	43	2.4691e-07	0.000000000000000E+000	110443	0.000000000000000E+000	285103	0.000000000000000E+000	0.00128782	0.00128782	0.0000000E+000	0.000000000000000E+000	-3.86655e-08
1	1	0	1	0	0	0	285413	0.0002	-0.192622	0.000199596	0.00469804	0.00469804	0	0.00130501	43	2.50227e-07	0.000000000000000E+000	109031	0.000000000000000E+000	285413	0.000000000000000E+000	0.00130501	0.00130501	0.0000000E+000	0.000000000000000E+000	-3.84467e-08
1	1	0	1	0	0	0	285723	0.0002	-0.192431	0.000199607	0.00475991	0.00475991	0	0.0013222	43	2.53536e-07	0.000000000000000E+000	109980	0.000000000000000E+000	285723	0.000000000000000E+000	0.0013222	0.0013222	0.0000000E+000	0.000000000000000E+000	-3.84108e-08
1	1	0	1	0	0	0	286033	0.0002	-0.192145	0.000199546	0.00482179	0.00482179	0	0.00133939	43	2.56839e-07	0.000000000000000E+000	110677	0.000000000000000E+000	286033	0.000000000000000E+000	0.00133939	0.00133939	0.0000000E+000	0.000000000000000E+000	-3.83419e-08
1	1	0	1	0	0	0	286343	0.0002	-0.191889	0.000199604	0.00488366	0.00488366	0	0.00135657	43	2.6014e-07	0.000000000000000E+000	111443	0.000000000000000E+000	286343	0.000000000000000E+000	0.00135657	0.00135657	0.0000000E+000	0.000000000000000E+000	-3.83018e-08
1	1	0	1	0	0	0	286653	0.0002	-0.192447	0.000199596	0.00494554	0.00494554	0	0.00137376	43	2.63436e-07	0.000000000000000E+000	114309	0.000000000000000E+000	286653	0.000000000000000E+000	0.00137376	0.00137376	0.0000000E+000	0.000000000000000E+000	-3.84116e-08
1	1	0	1	0	0	0	286963	0.0002	-0.191294	0.000199615	0.00500741	0.00500741	0	0.00139095	43	2.6673e-07	0.000000000000000E+000	112735	0.000000000000000E+000	286963	0.000000000000000E+000	0.00139095	0.00139095	0.0000000E+000	0.000000000000000E+000	-3.81851e-08
1	1	0	1	0	0	0	287273	0.0002	-0.191698	0.000199565	0.00506928	0.00506928	0	0.00140813	43	2.7002e-07	0.000000000000000E+000	115177	0.000000000000000E+000	287273	0.000000000000000E+000	0.00140813	0.00140813	0.0000000E+000	0.000000000000000E+000	-3.82564e-08
1	1	0	1	0	0	0	287583	0.0002	-0.191046	0.0001996	0.00513116	0.00513116	0	0.00142532	43	2.7331e-07	0.000000000000000E+000	114879	0.000000000000000E+000	287583	0.000000000000000E+000	0.00142532	0.00142532	0.0000000E+000	0.000000000000000E+000	-3.81326e-08
1	1	0	1	0	0	0	287893	0.0002	-0.190305	0.000199607	0.00519303	0.00519303	0	0.00144251	43	2.76592e-07	0.000000000000000E+000	114368	0.000000000000000E+000	287893	0.000000000000000E+000	0.00144251	0.00144251	0.0000000E+000	0.000000000000000E+000	-3.79863e-08
1	1	0	1	0	0	0	288203	0.0002	-0.189988	0.00019963	0.00525491	0.00525491	0	0.0014597	43	2.7986e-07	0.000000000000000E+000	114928	0.000000000000000E+000	288203	0.000000000000000E+000	0.0014597	0.0014597	0.0000000E+000	0.000000000000000E+000	-3.79274e-08
1	1	0	1	0	0	0	288513	0.0002	-0.190454	0.000199607	0.00531678	0.00531678	0	0.00147688	43	2.83131e-07	0.000000000000000E+000	117478	0.000000000000000E+000	288513	0.000000000000000E+000	0.00147688	0.00147688	0.0000000E+000	0.000000000000000E+000	-3.8016e-08
1	1	0	1	0	0	0	288823	0.0002	-0.19006	0.000199596	0.00537865	0.00537865	0	0.00149407	43	2.86401e-07	0.000000000000000E+000	117822	0.000000000000000E+000	288823	0.000000000000000E+000	0.00149407	0.00149407	0.0000000E+000	0.000000000000000E+000	-3.79353e-08
1	1	0	1	0	0	0	289133	0.0002	-0.189366	0.000199542	0.00544053	0.00544053	0	0.00151126	43	2.89661e-07	0.000000000000000E+000	117390	0.000000000000000E+000	289133	0.000000000000000E+000	0.00151126	0.00151126	0.0000000E+000	0.000000000000000E+000	-3.77865e-08
1	1	0	1	0	0	0	289443	0.0002	-0.188846	0.0001996	0.0055024	0.0055024	0	0.00152844	43	2.92912e-07	0.000000000000000E+000	117410	0.000000000000000E+000	289443	0.000000000000000E+000	0.00152844	0.00152844	0.0000000E+000	0.000000000000000E+000	-3.76937e-08
1	1	0	1	0	0	0	289753	0.0002	-0.188625	0.000199562	0.00556428	0.00556428	0	0.00154563	43	2.96156e-07	0.000000000000000E+000	118172	0.000000000000000E+000	289753	0.000000000000000E+000	0.00154563	0.00154563	0.0000000E+000	0.000000000000000E+000	-3.76423e-08
1	1	0	1	0	0	0	290063	0.0002	-0.188472	0.0001996	0.00562615	0.00562615	0	0.00156282	43	2.99398e-07	0.000000000000000E+000	119099	0.000000000000000E+000	290063	0.000000000000000E+000	0.00156282	0.00156282	0.0000000E+000	0.000000000000000E+000	-3.7619e-08
1	1	0	1	0	0	0	290373	0.0002	-0.188487	0.000199604	0.00568802	0.00568802	0	0.00158001	43	3.02638e-07	0.000000000000000E+000	120448	0.000000000000000E+000	290373	0.000000000000000E+000	0.00158001	0.00158001	0.0000000E+000	0.000000000000000E+000	-3.76228e-08
1	1	0	1	0	0	0	290683	0.0002	-0.188323	0.000199604	0.0057499	0.0057499	0	0.00159719	43	3.05876e-07	0.000000000000000E+000	121337	0.000000000000000E+000	290683	0.000000000000000E+000	0.00159719	0.00159719	0.0000000E+000	0.000000000000000E+000	-3.759e-08
1	1	0	1	0	0	0	290993	0.0002	-0.18801	0.00019963	0.00581177	0.00581177	0	0.00161438	43	3.09111e-07	0.000000000000000E+000	121837	0.000000000000000E+000	290993	0.000000000000000E+000	0.00161438	0.00161438	0.0000000E+000	0.000000000000000E+000	-3.75325e-08
1	1	0	1	0	0	0	291303	0.0002	-0.188243	0.000199573	0.00587364	0.00587364	0	0.00163157	43	3.12346e-07	0.000000000000000E+000	123739	0.000000000000000E+000	291303	0.000000000000000E+000	0.00163157	0.00163157	0.0000000E+000	0.000000000000000E+000	-3.75683e-08
1	1	0	1	0	0	0	291613	0.0002	-0.187869	0.000199619	0.00593552	0.00593552	0	0.00164876	43	3.15577e-07	0.000000000000000E+000	124064	0.000000000000000E+000	291613	0.000000000000000E+000	0.00164876	0.00164876	0.0000000E+000	0.000000000000000E+000	-3.75022e-08
1	1	0	1	0	0	0	291923	0.0002	-0.187705	0.000199588	0.00599739	0.00599739	0	0.00166594	43	3.18805e-07	0.000000000000000E+000	124929	0.000000000000000E+000	291923	0.000000000000000E+000	0.00166594	0.00166594	0.0000000E+000	0.000000000000000E+000	-3.74637e-08
1	1	0	1	0	0	0	292233	0.0002	-0.187632	0.000199585	0.00605927	0.00605927	0	0.00168313	43	3.22031e-07	0.000000000000000E+000	126027	0.000000000000000E+000	292233	0.000000000000000E+000	0.00168313	0.00168313	0.0000000E+000	0.000000000000000E+000	-3.74485e-08
1	1	0	1	0	0	0	292543	0.0002	-0.187537	0.000199569	0.00612114	0.00612114	0	0.00170032	43	3.25255e-07	0.000000000000000E+000	127062	0.000000000000000E+000	292543	0.000000000000000E+000	0.00170032	0.00170032	0.0000000E+000	0.000000000000000E+000	-3.74266e-08
1	1	0	1	0	0	0	292853	0.0002	-0.187331	0.000199584	0.00618301	0.00618301	0	0.0017175	43	3.28475e-07	0.000000000000000E+000	127799	0.000000000000000E+000	292853	0.000000000000000E+000	0.0017175	0.0017175	0.0000000E+000	0.000000000000000E+000	-3.73883e-08
1	1	0	1	0	0	0	293163	0.0002	-0.187132	0.000199588	0.00624489	0.00624489	0	0.00173469	43	3.31693e-07	0.000000000000000E+000	128551	0.000000000000000E+000	293163	0.000000000000000E+000	0.00173469	0.00173469	0.0000000E+000	0.000000000000000E+000	-3.73494e-08
1	1	0	1	0	0	0	293473	0.0002	-0.187228	0.00019963	0.00630676	0.00630676	0	0.00175188	43	3.3491e-07	0.000000000000000E+000	130080	0.000000000000000E+000	293473	0.000000000000000E+000	0.00175188	0.00175188	0.0000000E+000	0.000000000000000E+000	-3.73763e-08
1	1	0	1	0	0	0	293783	0.0002	-0.186842	0.000199562	0.00636863	0.00636863	0	0.00176906	43	3.38125e-07	0.000000000000000E+000	130319	0.000000000000000E+000	293783	0.000000000000000E+000	0.00176906	0.00176906	0.0000000E+000	0.000000000000000E+000	-3.72865e-08
1	1	0	1	0	0	0	294093	0.0002	-0.186441	0.000199619	0.0064305	0.0064305	0	0.00178625	43	3.41334e-07	0.000000000000000E+000	130515	0.000000000000000E+000	294093	0.000000000000000E+000	0.00178625	0.00178625	0.0000000E+000	0.000000000000000E+000	-3.72171e-08
1	1	0	1	0	0	0	294403	0.0002	-0.186441	0.000199562	0.00649238	0.00649238	0	0.00180344	43	3.44539e-07	0.000000000000000E+000	131771	0.000000000000000E+000	294403	0.000000000000000E+000	0.00180344	0.00180344	0.0000000E+000	0.000000000000000E+000	-3.72065e-08
1	1	0	1	0	0	0	294713	0.0002	-0.185616	0.000199516	0.00655425	0.00655425	0	0.00182062	43	3.47732e-07	0.000000000000000E+000	130836	0.000000000000000E+000	294713	0.000000000000000E+000	0.00182062	0.00182062	0.0000000E+000	0.000000000000000E+000	-3.70334e-08
1	1	0	1	0	0	0	295023	0.0002	-0.185651	0.000199585	0.00661612	0.00661612	0	0.00183781	43	3.50924e-07	0.000000000000000E+000	132162	0.000000000000000E+000	295023	0.000000000000000E+000	0.00183781	0.00183781	0.0000000E+000	0.000000000000000E+000	-3.7053e-08
1	1	0	1	0	0	0	295333	0.0002	-0.185834	0.000199585	0.006678	0.006678	0	0.001855	43	3.54117e-07	0.000000000000000E+000	133888	0.000000000000000E+000	295333	0.000000000000000E+000	0.001855	0.001855	0.0000000E+000	0.000000000000000E+000	-3.70896e-08
1	1	0	1	0	0	0	295643	0.0002	-0.185578	0.000199581	0.00673987	0.00673987	0	0.00187219	43	3.57309e-07	0.000000000000000E+000	134439	0.000000000000000E+000	295643	0.000000000000000E+000	0.00187219	0.00187219	0.0000000E+000	0.000000000000000E+000	-3.70378e-08
1	1	0	1	0	0	0	295953	0.0002	-0.185563	0.000199569	0.00680174	0.00680174	0	0.00188937	43	3.60497e-07	0.000000000000000E+000	135632	0.000000000000000E+000	295953	0.000000000000000E+000	0.00188937	0.00188937	0.0000000E+000	0.000000000000000E+000	-3.70326e-08
1	1	0	1	0	0	0	296263	0.0002	-0.185345	0.000199562	0.00686361	0.00686361	0	0.00190656	43	3.63685e-07	0.000000000000000E+000	136275	0.000000000000000E+000	296263	0.000000000000000E+000	0.00190656	0.00190656	0.0000000E+000	0.000000000000000E+000	-3.69878e-08
1	1	0	1	0	0	0	296573	0.0002	-0.18499	0.000199596	0.00692548	0.00692548	0	0.00192375	43	3.6687e-07	0.000000000000000E+000	136540	0.000000000000000E+000	296573	0.000000000000000E+000	0.00192375	0.00192375	0.0000000E+000	0.000000000000000E+000	-3.69233e-08
1	1	0	1	0	0	0	296883	0.0002	-0.184921	0.000199604	0.00698735	0.00698735	0	0.00194093	43	3.70047e-07	0.000000000000000E+000	137574	0.000000000000000E+000	296883	0.000000000000000E+000	0.00194093	0.00194093	0.0000000E+000	0.000000000000000E+000	-3.6911e-08
1	1	0	1	0	0	0	297193	0.0002	-0.185097	0.000199585	0.00704923	0.00704923	0	0.00195812	43	3.73223e-07	0.000000000000000E+000	139274	0.000000000000000E+000	297193	0.000000000000000E+000	0.00195812	0.00195812	0.0000000E+000	0.000000000000000E+000	-3.69425e-08
1	1	0	1	0	0	0	297503	0.0002	-0.184704	0.000199546	0.0071111	0.0071111	0	0.00197531	43	3.76399e-07	0.000000000000000E+000	139413	0.000000000000000E+000	297503	0.000000000000000E+000	0.00197531	0.00197531	0.0000000E+000	0.000000000000000E+000	-3.6857e-08
1	1	0	1	0	0	0	297813	0.0002	-0.184093	0.0001996	0.00717297	0.00717297	0	0.00199249	43	3.79567e-07	0.000000000000000E+000	138962	0.000000000000000E+000	297813	0.000000000000000E+000	0.00199249	0.00199249	0.0000000E+000	0.000000000000000E+000	-3.67449e-08
1	1	0	1	0	0	0	298123	0.0002	-0.183761	0.000199581	0.00723484	0.00723484	0	0.00200968	43	3.82729e-07	0.000000000000000E+000	139264	0.000000000000000E+000	298123	0.000000000000000E+000	0.00200968	0.00200968	0.0000000E+000	0.000000000000000E+000	-3.66751e-08
1	1	0	1	0	0	0	298433	0.0002	-0.18386	0.000199588	0.00729672	0.00729672	0	0.00202687	43	3.85889e-07	0.000000000000000E+000	140724	0.000000000000000E+000	298433	0.000000000000000E+000	0.00202687	0.00202687	0.0000000E+000	0.000000000000000E+000	-3.66963e-08
1	1	0	1	0	0	0	298743	0.0002	-0.18365	0.000199627	0.00735859	0.00735859	0	0.00204405	43	3.89047e-07	0.000000000000000E+000	141345	0.000000000000000E+000	298743	0.000000000000000E+000	0.00204405	0.00204405	0.0000000E+000	0.000000000000000E+000	-3.66614e-08
1	1	0	1	0	0	0	299053	0.0002	-0.18336	0.000199592	0.00742047	0.00742047	0	0.00206124	43	3.92202e-07	0.000000000000000E+000	141743	0.000000000000000E+000	299053	0.000000000000000E+000	0.00206124	0.00206124	0.0000000E+000	0.000000000000000E+000	-3.65972e-08
1	1	0	1	0	0	0	299363	0.0002	-0.182818	0.000199615	0.00748234	0.00748234	0	0.00207843	43	3.95348e-07	0.000000000000000E+000	141460	0.000000000000000E+000	299363	0.000000000000000E+000	0.00207843	0.00207843	0.0000000E+000	0.000000000000000E+000	-3.64932e-08
1	1	0	1	0	0	0	299673	0.0002	-0.182841	0.000199562	0.00754421	0.00754421	0	0.00209561	43	3.98488e-07	0.000000000000000E+000	142692	0.000000000000000E+000	299673	0.000000000000000E+000	0.00209561	0.00209561	0.0000000E+000	0.000000000000000E+000	-3.6488e-08
1	1	0	1	0	0	0	299983	0.0002	-0.182699	0.000199562	0.00760608	0.00760608	0	0.0021128	43	4.01636e-07	0.000000000000000E+000	143479	0.000000000000000E+000	299983	0.000000000000000E+000	0.0021128	0.0021128	0.0000000E+000	0.000000000000000E+000	-3.64598e-08
1	1	0	1	0	0	0	300293	0.0002	-0.181947	0.000199642	0.00766796	0.00766796	0	0.00212999	43	4.04768e-07	0.000000000000000E+000	142622	0.000000000000000E+000	300293	0.000000000000000E+000	0.00212999	0.00212999	0.0000000E+000	0.000000000000000E+000	-3.63243e-08
1	1	0	1	0	0	0	300603	0.0002	-0.181932	0.000199604	0.00772983	0.00772983	0	0.00214718	43	4.07895e-07	0.000000000000000E+000	143732	0.000000000000000E+000	300603	0.000000000000000E+000	0.00214718	0.00214718	0.0000000E+000	0.000000000000000E+000	-3.63143e-08
1	1	0	1	0	0	0	300913	0.0002	-0.182264	0.000199573	0.00779171	0.00779171	0	0.00216436	43	4.11027e-07	0.000000000000000E+000	145783	0.000000000000000E+000	300913	0.000000000000000E+000	0.00216436	0.00216436	0.0000000E+000	0.000000000000000E+000	-3.6375e-08
1	1	0	1	0	0	0	301223	0.0002	-0.182245	0.000199619	0.00785358	0.00785358	0	0.00218155	43	4.14159e-07	0.000000000000000E+000	146888	0.000000000000000E+000	301223	0.000000000000000E+000	0.00218155	0.00218155	0.0000000E+000	0.000000000000000E+000	-3.63796e-08
1	1	0	1	0	0	0	301533	0.0002	-0.181565	0.000199554	0.00791545	0.00791545	0	0.00219874	43	4.17282e-07	0.000000000000000E+000	146187	0.000000000000000E+000	301533	0.000000000000000E+000	0.00219874	0.00219874	0.0000000E+000	0.000000000000000E+000	-3.62321e-08
1	1	0	1	0	0	0	301843	0.0002	-0.180699	0.000199585	0.00797732	0.00797732	0	0.00221592	43	4.20395e-07	0.000000000000000E+000	145009	0.000000000000000E+000	301843	0.000000000000000E+000	0.00221592	0.00221592	0.0000000E+000	0.000000000000000E+000	-3.60647e-08
1	1	0	1	0	0	0	302153	0.0002	-0.180428	0.000199573	0.0080392	0.0080392	0	0.00223311	43	4.23503e-07	0.000000000000000E+000	145417	0.000000000000000E+000	302153	0.000000000000000E+000	0.00223311	0.00223311	0.0000000E+000	0.000000000000000E+000	-3.60085e-08
1	1	0	1	0	0	0	302463	0.0002	-0.181088	0.00019963	0.00810107	0.00810107	0	0.0022503	43	4.26615e-07	0.000000000000000E+000	148308	0.000000000000000E+000	302463	0.000000000000000E+000	0.0022503	0.0022503	0.0000000E+000	0.000000000000000E+000	-3.61507e-08
1	1	0	1	0	0	0	302773	0.0002	-0.179698	0.000199619	0.00816294	0.00816294	0	0.00226748	43	4.29714e-07	0.000000000000000E+000	145733	0.000000000000000E+000	302773	0.000000000000000E+000	0.00226748	0.00226748	0.0000000E+000	0.000000000000000E+000	-3.58712e-08
1	1	0	1	0	0	0	303083	0.0002	-0.178752	0.000199577	0.00822482	0.00822482	0	0.00228467	43	4.32793e-07	0.000000000000000E+000	144397	0.000000000000000E+000	303083	0.000000000000000E+000	0.00228467	0.00228467	0.0000000E+000	0.000000000000000E+000	-3.56747e-08
1	1	0	1	0	0	0	303393	0.0002	-0.178324	0.000199611	0.00828669	0.00828669	0	0.00230186	43	4.35861e-07	0.000000000000000E+000	144399	0.000000000000000E+000	303393	0.000000000000000E+000	0.00230186	0.00230186	0.0000000E+000	0.000000000000000E+000	-3.55955e-08
1	1	0	1	0	0	0	303703	0.0002	-0.177736	0.000199627	0.00834856	0.00834856	0	0.00231904	43	4.3892e-07	0.000000000000000E+000	144002	0.000000000000000E+000	303703	0.000000000000000E+000	0.00231904	0.00231904	0.0000000E+000	0.000000000000000E+000	-3.54808e-08
1	1	0	1	0	0	0	304013	0.0002	-0.177305	0.000199585	0.00841043	0.00841043	0	0.00233623	43	4.41971e-07	0.000000000000000E+000	143997	0.000000000000000E+000	304013	0.000000000000000E+000	0.00233623	0.00233623	0.0000000E+000	0.000000000000000E+000	-3.53872e-08
1	1	0	1	0	0	0	304323	0.0002	-0.176575	0.000199577	0.0084723	0.0084723	0	0.00235342	43	4.45013e-07	0.000000000000000E+000	143268	0.000000000000000E+000	304323	0.000000000000000E+000	0.00235342	0.00235342	0.0000000E+000	0.000000000000000E+000	-3.52403e-08
1	1	0	1	0	0	0	304633	0.0002	-0.176522	0.0001996	0.00853417	0.00853417	0	0.0023706	43	4.48049e-07	0.000000000000000E+000	144184	0.000000000000000E+000	304633	0.000000000000000E+000	0.0023706	0.0023706	0.0000000E+000	0.000000000000000E+000	-3.52337e-08
1	1	0	1	0	0	0	304943	0.0002	-0.175903	0.000199562	0.00859604	0.00859604	0	0.00238779	43	4.51075e-07	0.000000000000000E+000	143727	0.000000000000000E+000	304943	0.000000000000000E+000	0.00238779	0.00238779	0.0000000E+000	0.000000000000000E+000	-3.51035e-08
1	1	0	1	0	0	0	305253	0.0002	-0.175724	0.000199596	0.00865791	0.00865791	0	0.00240497	43	4.541e-07	0.000000000000000E+000	144329	0.000000000000000E+000	305253	0.000000000000000E+000	0.00240497	0.00240497	0.0000000E+000	0.000000000000000E+000	-3.50738e-08
1	1	0	1	0	0	0	305563	0.0002	-0.174788	0.000199569	0.00871977	0.00871977	0	0.00242216	43	4.57111e-07	0.000000000000000E+000	143128	0.000000000000000E+000	305563	0.000000000000000E+000	0.00242216	0.00242216	0.0000000E+000	0.000000000000000E+000	-3.48824e-08
1	1	0	1	0	0	0	305873	0.0002	-0.174101	0.000199596	0.00878164	0.00878164	0	0.00243934	43	4.60108e-07	0.000000000000000E+000	142536	0.000000000000000E+000	305873	0.000000000000000E+000	0.00243934	0.00243934	0.0000000E+000	0.000000000000000E+000	-3.47499e-08
1	1	0	1	0	0	0	306183	0.0002	-0.173567	0.000199565	0.0088435	0.0088435	0	0.00245653	43	4.63095e-07	0.000000000000000E+000	142305	0.000000000000000E+000	306183	0.000000000000000E+000	0.00245653	0.00245653	0.0000000E+000	0.000000000000000E+000	-3.46379e-08
1	1	0	1	0	0	0	306493	0.0002	-0.173177	0.000199562	0.00890537	0.00890537	0	0.00247371	43	4.66074e-07	0.000000000000000E+000	142408	0.000000000000000E+000	306493	0.000000000000000E+000	0.00247371	0.00247371	0.0000000E+000	0.000000000000000E+000	-3.45595e-08
1	1	0	1	0	0	0	306803	0.0002	-0.172689	0.000199542	0.00896724	0.00896724	0	0.0024909	43	4.69046e-07	0.000000000000000E+000	142286	0.000000000000000E+000	306803	0.000000000000000E+000	0.0024909	0.0024909	0.0000000E+000	0.000000000000000E+000	-3.44587e-08
1	1	0	1	0	0	0	307114	0.0002	-0.172635	0.000199558	0.0090291	0.0090291	0	0.00250808	43	4.72012e-07	0.000000000000000E+000	143146	0.000000000000000E+000	307114	0.000000000000000E+000	0.00250808	0.00250808	0.0000000E+000	0.000000000000000E+000	-3.44507e-08
1	1	0	1	0	0	0	307424	0.0002	-0.171936	0.00019955	0.00909097	0.00909097	0	0.00252527	43	4.74971e-07	0.000000000000000E+000	142548	0.000000000000000E+000	307424	0.000000000000000E+000	0.00252527	0.00252527	0.0000000E+000	0.000000000000000E+000	-3.43099e-08
1	1	0	1	0	0	0	307734	0.0002	-0.171684	0.000199535	0.00915284	0.00915284	0	0.00254245	43	4.77924e-07	0.000000000000000E+000	142953	0.000000000000000E+000	307734	0.000000000000000E+000	0.00254245	0.00254245	0.0000000E+000	0.000000000000000E+000	-3.4257e-08
1	1	0	1	0	0	0	308044	0.0002	-0.171146	0.000199562	0.0092147	0.0092147	0	0.00255964	43	4.8087e-07	0.000000000000000E+000	142719	0.000000000000000E+000	308044	0.000000000000000E+000	0.00255964	0.00255964	0.0000000E+000	0.000000000000000E+000	-3.41542e-08
1	1	0	1	0	0	0	308354	0.0002	-0.170925	0.000199554	0.00927657	0.00927657	0	0.00257682	43	4.8381e-07	0.000000000000000E+000	143186	0.000000000000000E+000	308354	0.000000000000000E+000	0.00257682	0.00257682	0.0000000E+000	0.000000000000000E+000	-3.41087e-08
1	1	0	1	0	0	0	308664	0.0002	-0.170356	0.000199546	0.00933843	0.00933843	0	0.00259401	43	4.86744e-07	0.000000000000000E+000	142886	0.000000000000000E+000	308664	0.000000000000000E+000	0.00259401	0.00259401	0.0000000E+000	0.000000000000000E+000	-3.39938e-08
1	1	0	1	0	0	0	308974	0.0002	-0.170157	0.000199554	0.0094003	0.0094003	0	0.00261119	43	4.89669e-07	0.000000000000000E+000	143398	0.000000000000000E+000	308974	0.000000000000000E+000	0.00261119	0.00261119	0.0000000E+000	0.000000000000000E+000	-3.39555e-08
1	1	0	1	0	0	0	309284	0.0002	-0.169562	0.000199554	0.00946216	0.00946216	0	0.00262838	43	4.92587e-07	0.000000000000000E+000	143042	0.000000000000000E+000	309284	0.000000000000000E+000	0.00262838	0.00262838	0.0000000E+000	0.000000000000000E+000	-3.38367e-08
1	1	0	1	0	0	0	309594	0.0002	-0.168997	0.000199523	0.00952403	0.00952403	0	0.00264556	43	4.95494e-07	0.000000000000000E+000	142757	0.000000000000000E+000	309594	0.000000000000000E+000	0.00264556	0.00264556	0.0000000E+000	0.000000000000000E+000	-3.37188e-08
1	1	0	1	0	0	0	309904	0.0002	-0.168737	0.000199565	0.00958589	0.00958589	0	0.00266275	43	4.98398e-07	0.000000000000000E+000	143128	0.000000000000000E+000	309904	0.000000000000000E+000	0.00266275	0.00266275	0.0000000E+000	0.000000000000000E+000	-3.3674e-08
1	1	0	1	0	0	0	310214	0.0002	-0.168267	0.00019955	0.00964776	0.00964776	0	0.00267993	43	5.01293e-07	0.000000000000000E+000	143048	0.000000000000000E+000	310214	0.000000000000000E+000	0.00267993	0.00267993	0.0000000E+000	0.000000000000000E+000	-3.35778e-08
1	1	0	1	0	0	0	310524	0.0002	-0.167866	0.000199562	0.00970962	0.00970962	0	0.00269712	43	5.0418e-07	0.000000000000000E+000	143115	0.000000000000000E+000	310524	0.000000000000000E+000	0.00269712	0.00269712	0.0000000E+000	0.000000000000000E+000	-3.34997e-08
1	1	0	1	0	0	0	310834	0.0002	-0.167481	0.000199554	0.00977149	0.00977149	0	0.0027143	43	5.07062e-07	0.000000000000000E+000	143213	0.000000000000000E+000	310834	0.000000000000000E+000	0.0027143	0.0027143	0.0000000E+000	0.000000000000000E+000	-3.34214e-08
1	1	0	1	0	0	0	311144	0.0002	-0.167057	0.0001996	0.00983335	0.00983335	0	0.00273149	43	5.09936e-07	0.000000000000000E+000	143230	0.000000000000000E+000	311144	0.000000000000000E+000	0.00273149	0.00273149	0.0000000E+000	0.000000000000000E+000	-3.33445e-08
1	1	0	1	0	0	0	311454	0.0002	-0.166797	0.000199585	0.00989522	0.00989522	0	0.00274867	43	5.12805e-07	0.000000000000000E+000	143588	0.000000000000000E+000	311454	0.000000000000000E+000	0.00274867	0.00274867	0.0000000E+000	0.000000000000000E+000	-3.32902e-08
1	1	0	1	0	0	0	311764	0.0002	-0.166515	0.000199539	0.00995709	0.00995709	0	0.00276586	43	5.1567e-07	0.000000000000000E+000	143896	0.000000000000000E+000	311764	0.000000000000000E+000	0.00276586	0.00276586	0.0000000E+000	0.000000000000000E+000	-3.32261e-08
1	1	0	1	0	0	0	312074	0.0002	-0.166259	0.000199565	0.010019	0.010019	0	0.00278304	43	5.18529e-07	0.000000000000000E+000	144257	0.000000000000000E+000	312074	0.000000000000000E+000	0.00278304	0.00278304	0.0000000E+000	0.000000000000000E+000	-3.31795e-08
1	1	0	1	0	0	0	312384	0.0002	-0.165839	0.000199569	0.0100808	0.0100808	0	0.00280023	43	5.21382e-07	0.000000000000000E+000	144275	0.000000000000000E+000	312384	0.000000000000000E+000	0.00280023	0.00280023	0.0000000E+000	0.000000000000000E+000	-3.30964e-08
1	1	0	1	0	0	0	312694	0.0002	-0.165602	0.000199588	0.0101427	0.0101427	0	0.00281741	43	5.2423e-07	0.000000000000000E+000	144670	0.000000000000000E+000	312694	0.000000000000000E+000	0.00281741	0.00281741	0.0000000E+000	0.000000000000000E+000	-3.30523e-08
1	1	0	1	0	0	0	313004	0.0002	-0.165224	0.000199558	0.0102046	0.0102046	0	0.0028346	43	5.27072e-07	0.000000000000000E+000	144772	0.000000000000000E+000	313004	0.000000000000000E+000	0.0028346	0.0028346	0.0000000E+000	0.000000000000000E+000	-3.29718e-08
1	1	0	1	0	0	0	313314	0.0002	-0.164797	0.00019955	0.0102664	0.0102664	0	0.00285178	43	5.29908e-07	0.000000000000000E+000	144772	0.000000000000000E+000	313314	0.000000000000000E+000	0.00285178	0.00285178	0.0000000E+000	0.000000000000000E+000	-3.28852e-08
1	1	0	1	0	0	0	313624	0.0002	-0.165686	0.000199535	0.0103283	0.0103283	0	0.00286897	43	5.32755e-07	0.000000000000000E+000	147494	0.000000000000000E+000	313624	0.000000000000000E+000	0.00286897	0.00286897	0.0000000E+000	0.000000000000000E+000	-3.30602e-08
1	1	0	1	0	0	0	313934	0.0002	-0.165583	0.000199542	0.0103901	0.0103901	0	0.00288615	43	5.35601e-07	0.000000000000000E+000	148160	0.000000000000000E+000	313934	0.000000000000000E+000	0.00288615	0.00288615	0.0000000E+000	0.000000000000000E+000	-3.30409e-08
1	1	0	1	0	0	0	314244	0.0002	-0.165049	0.000199508	0.010452	0.010452	0	0.00290334	43	5.38442e-07	0.000000000000000E+000	147914	0.000000000000000E+000	314244	0.000000000000000E+000	0.00290334	0.00290334	0.0000000E+000	0.000000000000000E+000	-3.29286e-08
1	1	0	1	0	0	0	314554	0.0002	-0.164778	0.00019955	0.0105139	0.0105139	0	0.00292052	43	5.41278e-07	0.000000000000000E+000	148221	0.000000000000000E+000	314554	0.000000000000000E+000	0.00292052	0.00292052	0.0000000E+000	0.000000000000000E+000	-3.28814e-08
1	1	0	1	0	0	0	314864	0.0002	-0.164289	0.000199569	0.0105757	0.0105757	0	0.00293771	43	5.44106e-07	0.000000000000000E+000	148073	0.000000000000000E+000	314864	0.000000000000000E+000	0.00293771	0.00293771	0.0000000E+000	0.000000000000000E+000	-3.2787e-08
1	1	0	1	0	0	0	315174	0.0002	-0.164354	0.000199585	0.0106376	0.0106376	0	0.00295489	43	5.46931e-07	0.000000000000000E+000	149075	0.000000000000000E+000	315174	0.000000000000000E+000	0.00295489	0.00295489	0.0000000E+000	0.000000000000000E+000	-3.28025e-08
1	1	0	1	0	0	0	315484	0.0002	-0.163751	0.000199592	0.0106995	0.0106995	0	0.00297208	43	5.49751e-07	0.000000000000000E+000	148685	0.000000000000000E+000	315484	0.000000000000000E+000	0.00297208	0.00297208	0.0000000E+000	0.000000000000000E+000	-3.26833e-08
1	1	0	1	0	0	0	315794	0.0002	-0.163548	0.000199531	0.0107613	0.0107613	0	0.00298926	43	5.52564e-07	0.000000000000000E+000	149125	0.000000000000000E+000	315794	0.000000000000000E+000	0.00298926	0.00298926	0.0000000E+000	0.000000000000000E+000	-3.26329e-08
1	1	0	1	0	0	0	316104	0.0002	-0.162758	0.000199554	0.0108232	0.0108232	0	0.00300644	43	5.55365e-07	0.000000000000000E+000	148358	0.000000000000000E+000	316104	0.000000000000000E+000	0.00300644	0.00300644	0.0000000E+000	0.000000000000000E+000	-3.2479e-08
1	1	0	1	0	0	0	316414	0.0002	-0.163376	0.00019955	0.0108851	0.0108851	0	0.00302363	43	5.58164e-07	0.000000000000000E+000	150481	0.000000000000000E+000	316414	0.000000000000000E+000	0.00302363	0.00302363	0.0000000E+000	0.000000000000000E+000	-3.26018e-08
1	1	0	1	0	0	0	316724	0.0002	-0.162273	0.000199539	0.0109469	0.0109469	0	0.00304081	43	5.6096e-07	0.000000000000000E+000	149063	0.000000000000000E+000	316724	0.000000000000000E+000	0.00304081	0.00304081	0.0000000E+000	0.000000000000000E+000	-3.23797e-08
1	1	0	1	0	0	0	317034	0.0002	-0.161983	0.000199512	0.0110088	0.0110088	0	0.003058	43	5.63751e-07	0.000000000000000E+000	149315	0.000000000000000E+000	317034	0.000000000000000E+000	0.003058	0.003058	0.0000000E+000	0.000000000000000E+000	-3.23175e-08
1	1	0	1	0	0	0	317344	0.0002	-0.161448	0.000199581	0.0110706	0.0110706	0	0.00307518	43	5.66531e-07	0.000000000000000E+000	149074	0.000000000000000E+000	317344	0.000000000000000E+000	0.00307518	0.00307518	0.0000000E+000	0.000000000000000E+000	-3.2222e-08
1	1	0	1	0	0	0	317654	0.0002	-0.160746	0.000199577	0.0111325	0.0111325	0	0.00309236	43	5.69301e-07	0.000000000000000E+000	148502	0.000000000000000E+000	317654	0.000000000000000E+000	0.00309236	0.00309236	0.0000000E+000	0.000000000000000E+000	-3.20811e-08
1	1	0	1	0	0	0	317964	0.0002	-0.160341	0.000199585	0.0111944	0.0111944	0	0.00310955	43	5.7206e-07	0.000000000000000E+000	148525	0.000000000000000E+000	317964	0.000000000000000E+000	0.00310955	0.00310955	0.0000000E+000	0.000000000000000E+000	-3.20016e-08
1	1	0	1	0	0	0	318274	0.0002	-0.159757	0.00019963	0.0112562	0.0112562	0	0.00312673	43	5.74811e-07	0.000000000000000E+000	148197	0.000000000000000E+000	318274	0.000000000000000E+000	0.00312673	0.00312673	0.0000000E+000	0.000000000000000E+000	-3.18923e-08
1	1	0	1	0	0	0	318584	0.0002	-0.158291	0.000199646	0.0113181	0.0113181	0	0.00314392	43	5.77543e-07	0.000000000000000E+000	146190	0.000000000000000E+000	318584	0.000000000000000E+000	0.00314392	0.00314392	0.0000000E+000	0.000000000000000E+000	-3.16021e-08
1	1	0	1	0	0	0	318894	0.0002	-0.155813	0.000199676	0.01138	0.01138	0	0.00316112	43	5.80245e-07	0.000000000000000E+000	142431	0.000000000000000E+000	318894	0.000000000000000E+000	0.00316112	0.00316112	0.0000000E+000	0.000000000000000E+000	-3.11121e-08
1	1	0	1	0	0	0	319204	0.0002	-0.151835	0.00019973	0.0114419	0.0114419	0	0.00317831	43	5.82887e-07	0.000000000000000E+000	136414	0.000000000000000E+000	319204	0.000000000000000E+000	0.00317831	0.00317831	0.0000000E+000	0.000000000000000E+000	-3.03259e-08
1	1	0	1	0	0	0	319514	0.0002	-0.149968	0.000199722	0.0115038	0.0115038	0	0.00319551	43	5.85484e-07	0.000000000000000E+000	134165	0.000000000000000E+000	319514	0.000000000000000E+000	0.00319551	0.00319551	0.0000000E+000	0.000000000000000E+000	-2.99518e-08
1	1	0	1	0	0	0	319824	0.0002	-0.146539	0.000199737	0.0115657	0.0115657	0	0.00321271	43	5.88032e-07	0.000000000000000E+000	129701	0.000000000000000E+000	319824	0.000000000000000E+000	0.00321271	0.00321271	0.0000000E+000	0.000000000000000E+000	-2.92693e-08
1	1	0	1	0	0	0	320134	0.0002	-0.143939	0.00019968	0.0116277	0.0116277	0	0.00322991	43	5.90525e-07	0.000000000000000E+000	126701	0.000000000000000E+000	320134	0.000000000000000E+000	0.00322991	0.00322991	0.0000000E+000	0.000000000000000E+000	-2.87417e-08
1	1	0	1	0	0	0	320444	0.0002	-0.143385	0.000199745	0.0116896	0.0116896	0	0.00324711	43	5.92996e-07	0.000000000000000E+000	126612	0.000000000000000E+000	320444	0.000000000000000E+000	0.00324711	0.00324711	0.0000000E+000	0.000000000000000E+000	-2.86405e-08
1	1	0	1	0	0	0	320754	0.0002	-0.142118	0.000199749	0.0117515	0.0117515	0	0.0032643	43	5.95451e-07	0.000000000000000E+000	125559	0.000000000000000E+000	320754	0.000000000000000E+000	0.0032643	0.0032643	0.0000000E+000	0.000000000000000E+000	-2.83878e-08
1	1	0	1	0	0	0	321064	0.0002	-0.136765	0.00019968	0.0118134	0.0118134	0	0.0032815	43	5.9784e-07	0.000000000000000E+000	119392	0.000000000000000E+000	321064	0.000000000000000E+000	0.0032815	0.0032815	0.0000000E+000	0.000000000000000E+000	-2.73092e-08
1	1	0	1	0	0	0	321220	0.0002	-0.0970575	0.000199749	0.0118446	0.0118446	0	0.00329016	43	5.99023e-07	0.000000000000000E+000	85425.6	0.000000000000000E+000	321220	0.000000000000000E+000	0.00329016	0.00329016	0.0000000E+000	0.000000000000000E+000	-1.93871e-08
1	1	0	1	0	0	0	321220	0.0002	0.000805867	0.000199665	0.0118446	0.0118446	0	0.00329017	43	5.99023e-07	0.000000000000000E+000	50079.3	0.000000000000000E+000	321220	0.000000000000000E+000	0.00329017	0.00329017	0.0000000E+000	0.000000000000000E+000	1.60903e-10