File: data_dir/600_A_immertest4/600_A_02_CV_C04.mpt
EC-Lab ASCII FILE
Nb header lines : 62

Cyclic Voltammetry

Run on channel : 4 (SN 13148)
User :
Electrode connection : standard
Potential control : Ewe
Ewe ctrl range : min = -1.00 V, max = 1.00 V
Ewe,I filtering : 5 Hz
Safety Limits :
	Do not start on E overload
Channel : Floating
Acquisition started on : 07/01/2024 16:51:31.465
Loaded Setting File :  C:\Users\mAtsuhitA\Desktop\Oyafuso\20240624_???????4\1540_A.mps
Saved on :
	File : 600_A_02_CV_C04.mpr
	Directory : C:\Users\mAtsuhitA\Desktop\Oyafuso\20240624_???????4\600_A\
	Host : 192.109.209.100
Device : VSP-300 (SN 0960)
Address : USB
EC-Lab for windows v11.50 (software)
Internet server v11.50 (firmware)
Command interpretor v11.50 (firmware)
Electrode material :
Initial state :
Electrolyte :
Comments :
Cable : standard
Electrode surface area : 0.001 cm2
Characteristic mass : 0.001 g
Equivalent Weight : 0.000 g/eq.
Density : 0.000 g/cm3
Volume (V) : 0.001 cm3
Text export
   Mode : Standard
   Time format : Elapsed
Cycle Definition : Charge/Discharge alternance
Ei (V)              0.000
vs.                 Eoc
dE/dt               10.000
dE/dt unit          mV/s
E1 (V)              -0.050
vs.                 Eoc
Step percent        50
N                   10
E range min (V)     -1.000
E range max (V)     1.000
I Range             Auto
I Range min         Unset
I Range max         Unset
I Range init        Unset
Bandwidth           8
E2 (V)              0.000
vs.                 Ref
nc cycles           2
Reverse Scan        1
Ef (V)              0.000
vs.                 Eoc

mode	ox/red	error	control changes	counter inc.	time/s	control/V	Ewe/V	<I>/mA	cycle number	(Q-Qo)/C	I Range	step time/s	P/W
2	1	1	1	0	7201.26	-0.256995	-0.255959	0.00207291	1	0.0000000E+000	42	7201.26	-5.30581e-07
2	1	0	1	0	7201.53	-0.259769	-0.258863	0.000923263	1	3.93411e-07	42	7201.53	-2.38999e-07
2	1	0	1	0	7202.03	-0.264765	-0.263917	0.000184645	1	6.4657e-07	42	7202.03	-4.8731e-08
2	0	0	1	0	7202.53	-0.269763	-0.26892	-0.000179176	1	6.95932e-07	43	0.2	4.81841e-08
2	0	0	1	0	7202.83	-0.272761	-0.271939	-0.000315023	1	6.20824e-07	43	0.4998	8.56668e-08
2	0	0	1	0	7203.13	-0.27576	-0.274941	-0.000422748	1	5.09539e-07	43	0.7996	1.16231e-07
2	0	0	1	0	7203.43	-0.278758	-0.277934	-0.000511469	1	3.69083e-07	43	1.0994	1.42155e-07
2	0	0	1	0	7203.73	-0.281756	-0.280942	-0.00058771	1	2.03947e-07	43	1.3993	1.65113e-07
2	0	0	1	0	7204.03	-0.284755	-0.283942	-0.000653031	1	1.76666e-08	43	1.6992	1.85423e-07
2	0	0	1	0	7204.33	-0.287753	-0.286968	-0.000711273	1	-1.87062e-07	43	1.999	2.04112e-07
2	0	0	1	0	7204.63	-0.290752	-0.289981	-0.000763535	1	-4.0826e-07	43	2.2988	2.21411e-07
2	0	0	1	0	7204.93	-0.29375	-0.292933	-0.000810949	1	-6.44357e-07	43	2.5986	2.37554e-07
2	0	0	1	0	7205.19	-0.29375	-0.294601	-0.000778834	1	-8.53321e-07	43	2.854	2.29445e-07
2	0	0	1	0	7205.49	-0.290752	-0.291543	-0.000690005	1	-1.06954e-06	43	3.1538	2.01166e-07
2	0	0	1	0	7205.79	-0.287753	-0.288583	-0.000650282	1	-1.2702e-06	43	3.4536	1.8766e-07
2	0	0	1	0	7206.09	-0.284755	-0.2856	-0.000616537	1	-1.45995e-06	43	3.7534	1.76083e-07
2	0	0	1	0	7206.39	-0.281756	-0.282603	-0.000585731	1	-1.64013e-06	43	4.0533	1.65529e-07
2	0	0	1	0	7206.69	-0.278758	-0.279576	-0.000556025	1	-1.81125e-06	43	4.3532	1.55451e-07
2	0	0	1	0	7206.98	-0.27576	-0.276584	-0.000527799	1	-1.97365e-06	43	4.653	1.45981e-07
2	0	0	1	0	7207.28	-0.272761	-0.273592	-0.000500588	1	-2.12773e-06	43	4.9528	1.36957e-07
2	0	0	1	0	7207.58	-0.269763	-0.270588	-0.000474575	1	-2.27384e-06	43	5.2526	1.28414e-07
2	0	0	1	0	7207.88	-0.266764	-0.267569	-0.000448925	1	-2.41222e-06	43	5.5524	1.20118e-07
2	0	0	1	0	7208.18	-0.263766	-0.264585	-0.000424506	1	-2.54315e-06	43	5.8524	1.12318e-07
2	0	0	1	0	7208.48	-0.260768	-0.261592	-0.000400117	1	-2.6667e-06	43	6.1522	1.04667e-07
2	0	0	1	0	7208.78	-0.257769	-0.258578	-0.000376299	1	-2.78298e-06	43	6.452	9.73026e-08
2	0	0	1	0	7209.08	-0.254771	-0.255572	-0.000351817	1	-2.89211e-06	43	6.7518	8.99145e-08
2	0	0	1	0	7209.38	-0.251773	-0.252604	-0.000328264	1	-2.99404e-06	43	7.0516	8.29208e-08
2	0	0	1	0	7209.68	-0.248775	-0.249566	-0.000304316	1	-3.08885e-06	43	7.3515	7.59469e-08
2	0	0	1	0	7209.98	-0.245776	-0.246583	-0.000280244	1	-3.17644e-06	43	7.6514	6.91034e-08
2	0	0	1	0	7210.28	-0.242777	-0.243591	-0.000255655	1	-3.2567e-06	43	7.9512	6.22753e-08
2	0	0	1	0	7210.58	-0.239779	-0.240604	-0.000231258	1	-3.32971e-06	43	8.251	5.56416e-08
2	0	0	1	0	7210.88	-0.236781	-0.237604	-0.000206637	1	-3.39538e-06	43	8.5508	4.90977e-08
2	0	0	1	0	7211.18	-0.233782	-0.234597	-0.000182126	1	-3.45369e-06	43	8.8507	4.27263e-08
2	0	0	1	0	7211.48	-0.230784	-0.231605	-0.000157695	1	-3.50461e-06	43	9.1506	3.65231e-08
2	0	0	1	0	7211.78	-0.227786	-0.228612	-0.000133233	1	-3.54817e-06	43	9.4504	3.04586e-08
2	0	0	1	0	7212.08	-0.224787	-0.225597	-0.000108507	1	-3.58442e-06	43	9.7502	2.44789e-08
2	0	0	1	0	7212.38	-0.221789	-0.222589	-8.40449e-05	1	-3.61328e-06	43	10.05	1.87074e-08
2	0	0	1	0	7212.68	-0.218789	-0.219613	-5.9846e-05	1	-3.63482e-06	43	10.3499	1.3143e-08
2	0	0	1	0	7213.78	-0.207796	-0.208587	3.0127e-05	1	-3.65787e-06	44	0.000000000000000E+000	-6.2841e-09
2	1	0	1	0	7214.48	-0.2008	-0.201582	8.78647e-05	1	-3.63135e-06	44	0.6997	-1.77119e-08
2	1	0	1	0	7215.18	-0.193804	-0.194593	0.000153393	1	-3.55501e-06	43	1.3993	-2.98493e-08
2	1	0	1	0	7215.48	-0.190805	-0.191603	0.00018282	1	-3.50461e-06	43	1.6991	-3.50289e-08
2	1	0	1	0	7215.78	-0.187807	-0.188595	0.0002132	1	-3.44522e-06	43	1.9989	-4.02086e-08
2	1	0	1	0	7216.08	-0.184809	-0.185607	0.000243994	1	-3.3767e-06	43	2.2987	-4.52869e-08
2	1	0	1	0	7216.38	-0.18181	-0.182606	0.000275274	1	-3.29884e-06	43	2.5986	-5.02667e-08
2	1	0	1	0	7216.68	-0.178812	-0.179609	0.000306936	1	-3.21148e-06	43	2.8985	-5.51283e-08
2	1	0	1	0	7216.98	-0.175814	-0.176603	0.000339239	1	-3.11458e-06	43	3.1983	-5.99107e-08
2	1	0	1	0	7217.28	-0.172815	-0.173614	0.000371827	1	-3.00793e-06	43	3.4981	-6.45542e-08
2	1	0	1	0	7217.58	-0.169817	-0.170619	0.000405487	1	-2.89138e-06	43	3.7979	-6.91838e-08
2	1	0	1	0	7217.88	-0.166818	-0.167601	0.000439108	1	-2.76476e-06	43	4.0977	-7.35948e-08
2	1	0	1	0	7218.18	-0.16382	-0.164623	0.000473362	1	-2.62786e-06	43	4.3977	-7.79263e-08
2	1	0	1	0	7218.48	-0.160822	-0.161608	0.000508461	1	-2.4806e-06	43	4.6975	-8.21714e-08
2	1	0	1	0	7218.78	-0.157823	-0.158598	0.000544038	1	-2.32282e-06	43	4.9973	-8.62834e-08
2	1	0	1	0	7219.08	-0.154825	-0.155612	0.00057995	1	-2.15432e-06	43	5.2971	-9.0247e-08
2	1	0	1	0	7219.38	-0.151827	-0.152631	0.000616782	1	-1.97491e-06	43	5.5969	-9.41403e-08
2	1	0	1	0	7219.68	-0.148828	-0.149607	0.000653778	1	-1.78428e-06	43	5.8969	-9.78101e-08
2	1	0	1	0	7219.98	-0.14583	-0.14659	0.000691229	1	-1.58257e-06	43	6.1967	-1.01327e-07
2	1	0	1	0	7220.28	-0.142831	-0.143604	0.000730038	1	-1.36941e-06	43	6.4965	-1.04836e-07
2	1	0	1	0	7220.58	-0.139833	-0.140621	0.000768997	1	-1.14469e-06	43	6.7963	-1.08137e-07
2	1	0	1	0	7220.88	-0.136835	-0.137596	0.000808374	1	-9.08207e-07	43	7.0961	-1.11229e-07
2	1	0	1	0	7221.18	-0.133837	-0.134602	0.000848628	1	-6.59669e-07	43	7.396	-1.14227e-07
2	1	0	1	0	7221.48	-0.130838	-0.131614	0.000889679	1	-3.98977e-07	43	7.6959	-1.17094e-07
2	1	0	1	0	7221.78	-0.127839	-0.128614	0.000931034	1	-1.2605e-07	43	7.9957	-1.19744e-07
2	1	0	1	0	7222.08	-0.124841	-0.125621	0.000973306	1	1.59472e-07	43	8.2955	-1.22268e-07
2	1	0	1	0	7222.38	-0.121843	-0.122625	0.00101624	1	4.57707e-07	43	8.5953	-1.24616e-07
2	1	0	1	0	7222.68	-0.118844	-0.119631	0.00105975	1	7.69027e-07	43	8.8952	-1.26779e-07
2	1	0	1	0	7223.38	-0.111848	-0.112658	0.00117385	1	1.53507e-06	42	9.5949	-1.32243e-07
2	1	0	1	0	7223.68	-0.10885	-0.109669	0.00121273	1	1.89246e-06	42	9.8947	-1.32999e-07
2	1	0	1	0	7223.98	-0.105851	-0.10668	0.00125773	1	2.26278e-06	42	10.1945	-1.34174e-07
2	1	0	1	0	7224.28	-0.102853	-0.103675	0.00130373	1	2.64676e-06	42	10.4943	-1.35164e-07
2	1	0	1	0	7224.58	-0.0998545	-0.100678	0.0013514	1	3.04472e-06	42	10.7941	-1.36057e-07
2	1	0	1	0	7224.88	-0.0968571	-0.0976744	0.00139936	1	3.45717e-06	42	11.094	-1.36682e-07
2	1	0	1	0	7225.18	-0.0938578	-0.094681	0.00144859	1	3.88428e-06	42	11.3939	-1.37154e-07
2	1	0	1	0	7225.47	-0.0908594	-0.0916841	0.00149829	1	4.32603e-06	42	11.6937	-1.37369e-07
2	1	0	1	0	7225.77	-0.087861	-0.0886816	0.00154835	1	4.78268e-06	42	11.9935	-1.3731e-07
2	1	0	1	0	7226.07	-0.0848626	-0.0856851	0.00159957	1	5.25461e-06	42	12.2933	-1.37059e-07
2	1	0	1	0	7226.37	-0.0818645	-0.0827098	0.0016513	1	5.74214e-06	42	12.5932	-1.36579e-07
2	1	0	1	0	7226.67	-0.0788659	-0.0797027	0.00170413	1	6.24542e-06	42	12.8931	-1.35824e-07
2	1	0	1	0	7226.97	-0.0758675	-0.0767136	0.00175754	1	6.76427e-06	42	13.1929	-1.34827e-07
2	1	0	1	0	7227.27	-0.0728691	-0.0736817	0.00181083	1	7.29925e-06	42	13.4927	-1.33425e-07
2	1	0	1	0	7227.57	-0.0698707	-0.0706884	0.00186566	1	7.85033e-06	42	13.7925	-1.3188e-07
2	1	0	1	0	7227.87	-0.0668717	-0.0676884	0.00192151	1	8.41826e-06	42	14.0924	-1.30064e-07
2	1	0	1	0	7228.17	-0.0638739	-0.0647187	0.00197743	1	9.00286e-06	42	14.3923	-1.27977e-07
2	1	0	1	0	7228.47	-0.0608756	-0.0617135	0.00203394	1	9.60417e-06	42	14.6921	-1.25522e-07
2	1	0	1	0	7228.77	-0.0578772	-0.0587134	0.002091	1	1.02225e-05	42	14.9919	-1.2277e-07
2	1	0	1	0	7229.07	-0.0548788	-0.0557031	0.00214972	1	1.08582e-05	42	15.2917	-1.19746e-07
2	1	0	1	0	7229.37	-0.0518804	-0.0527202	0.00220815	1	1.15114e-05	42	15.5915	-1.16414e-07
2	1	0	1	0	7229.67	-0.048882	-0.0497194	0.00226827	1	1.21829e-05	42	15.8915	-1.12777e-07
2	1	0	1	0	7229.97	-0.0458837	-0.0467414	0.00232771	1	1.28718e-05	42	16.1913	-1.088e-07
2	1	0	1	0	7230.27	-0.0428853	-0.0437145	0.00238761	1	1.35787e-05	42	16.4911	-1.04373e-07
2	1	0	1	0	7230.57	-0.0398869	-0.0407174	0.00244788	1	1.43037e-05	42	16.7909	-9.96715e-08
2	1	0	1	0	7230.87	-0.0368885	-0.0377217	0.00251009	1	1.50468e-05	42	17.0907	-9.46849e-08
2	1	0	1	0	7231.17	-0.033891	-0.0347303	0.00257347	1	1.58091e-05	42	17.3906	-8.93773e-08
2	1	0	1	0	7231.47	-0.0308917	-0.0317344	0.002636	1	1.65903e-05	42	17.6905	-8.3652e-08
2	1	0	1	0	7231.77	-0.0278934	-0.0287199	0.00269991	1	1.73903e-05	42	17.9903	-7.75411e-08
2	1	0	1	0	7232.07	-0.024895	-0.0257223	0.00276518	1	1.82095e-05	42	18.2901	-7.11268e-08
2	1	0	1	0	7232.37	-0.0218966	-0.0227449	0.0028291	1	1.90482e-05	42	18.5899	-6.43477e-08
2	1	0	1	0	7232.67	-0.0188984	-0.0197292	0.00289562	1	1.99065e-05	42	18.8898	-5.71284e-08
2	1	0	1	0	7232.97	-0.0158998	-0.0167409	0.00296069	1	2.07847e-05	42	19.1897	-4.95645e-08
2	1	0	1	0	7233.27	-0.0129015	-0.0137333	0.00302772	1	2.16825e-05	42	19.4895	-4.15808e-08
2	1	0	1	0	7233.57	-0.00990307	-0.0107256	0.0030941	1	2.26002e-05	42	19.7893	-3.3186e-08
2	1	0	1	0	7233.87	-0.00690468	-0.00772697	0.00316069	1	2.35381e-05	42	20.0891	-2.44226e-08
2	1	0	1	0	7234.17	-0.00390586	-0.00475097	0.00323003	1	2.44964e-05	42	20.389	-1.53458e-08
2	1	0	1	0	7234.47	-0.00090792	-0.0017416	0.00329685	1	2.54752e-05	42	20.6889	-5.74178e-09
2	1	0	1	1	7234.69	-0.00125773	-0.000429685	0.00327267	1	2.62035e-05	42	20.9091	-1.40622e-09
2	1	0	1	1	7234.99	-0.00425611	-0.0034474	0.00314821	1	2.71631e-05	42	21.2089	-1.08531e-08
2	1	0	1	1	7235.29	-0.0072545	-0.00643776	0.00305593	1	2.80933e-05	42	21.5089	-1.96733e-08
2	1	0	1	1	7235.59	-0.0102529	-0.0094226	0.00296921	1	2.89961e-05	42	21.8087	-2.79777e-08
2	1	0	1	1	7235.89	-0.0132513	-0.0124371	0.00288661	1	2.98738e-05	42	22.1085	-3.59011e-08
2	1	0	1	1	7236.19	-0.0162496	-0.0154232	0.0028049	1	3.07265e-05	42	22.4083	-4.32607e-08
2	1	0	1	1	7236.49	-0.019248	-0.0184083	0.00272639	1	3.15556e-05	42	22.7081	-5.01882e-08
2	1	0	1	1	7236.79	-0.0222464	-0.021418	0.00265105	1	3.23618e-05	42	23.0081	-5.67801e-08
2	1	0	1	1	7237.09	-0.0252448	-0.024414	0.00257736	1	3.31457e-05	42	23.3079	-6.29239e-08
2	1	0	1	1	7237.39	-0.0282432	-0.0273989	0.00250448	1	3.39072e-05	42	23.6077	-6.86199e-08
2	1	0	1	1	7237.69	-0.0312416	-0.0304124	0.00243402	1	3.46473e-05	42	23.9075	-7.40243e-08
2	1	0	1	1	7237.99	-0.0342399	-0.0333889	0.00236372	1	3.53663e-05	42	24.2073	-7.89221e-08
2	1	0	1	1	7238.29	-0.0372379	-0.0363973	0.00229565	1	3.60651e-05	42	24.5072	-8.35556e-08
2	1	0	1	1	7238.59	-0.0402367	-0.0393932	0.00222864	1	3.67436e-05	42	24.8071	-8.77931e-08
2	1	0	1	1	7238.89	-0.0432351	-0.0423963	0.00216315	1	3.74018e-05	42	25.1069	-9.17093e-08
2	1	0	1	1	7239.19	-0.0462335	-0.0453896	0.00209977	1	3.80408e-05	42	25.4067	-9.53076e-08
2	1	0	1	1	7239.49	-0.0492319	-0.0483946	0.00203643	1	3.86608e-05	42	25.7065	-9.85522e-08
2	1	0	1	1	7239.79	-0.0522305	-0.0513794	0.00197505	1	3.92623e-05	42	26.0064	-1.01477e-07
2	1	0	1	1	7240.09	-0.0552286	-0.0544026	0.00191602	1	3.98456e-05	42	26.3063	-1.04237e-07
2	1	0	1	1	7240.39	-0.058227	-0.0574	0.00185605	1	4.04109e-05	42	26.6061	-1.06537e-07
2	1	0	1	1	7240.69	-0.0612254	-0.0603952	0.00179815	1	4.09587e-05	42	26.9059	-1.086e-07
2	1	0	1	1	7240.99	-0.0642238	-0.0633924	0.00174224	1	4.14892e-05	42	27.2057	-1.10445e-07
2	1	0	1	1	7241.29	-0.0672221	-0.0663995	0.00168635	1	4.20031e-05	42	27.5055	-1.11973e-07
2	1	0	1	1	7241.59	-0.0702205	-0.0693805	0.00163134	1	4.25007e-05	42	27.8055	-1.13183e-07
2	1	0	1	1	7241.89	-0.0732189	-0.0723974	0.00157791	1	4.29817e-05	42	28.1053	-1.14236e-07
2	1	0	1	1	7242.19	-0.0762173	-0.0753784	0.00152518	1	4.34468e-05	42	28.4051	-1.14966e-07
2	1	0	1	1	7242.49	-0.0792157	-0.0783906	0.00147396	1	4.38963e-05	42	28.7049	-1.15545e-07
2	1	0	1	1	7242.79	-0.0822141	-0.0813708	0.0014232	1	4.43304e-05	42	29.0047	-1.15807e-07
2	1	0	1	1	7243.09	-0.0852124	-0.0843838	0.00137316	1	4.47498e-05	42	29.3047	-1.15873e-07
2	1	0	1	1	7243.39	-0.0882108	-0.0873818	0.00132407	1	4.51541e-05	42	29.6045	-1.157e-07
2	1	0	1	1	7243.69	-0.0912092	-0.0903845	0.0012765	1	4.55437e-05	42	29.9043	-1.15376e-07
2	1	0	1	1	7243.99	-0.0942076	-0.0933748	0.00122915	1	4.59192e-05	42	30.2041	-1.14771e-07
2	1	0	1	1	7244.29	-0.097206	-0.0963739	0.00118298	1	4.62807e-05	42	30.5039	-1.14008e-07
2	1	0	1	1	7244.59	-0.100204	-0.0993754	0.00113745	1	4.66286e-05	42	30.8038	-1.13034e-07
2	1	0	1	1	7244.88	-0.103203	-0.102374	0.00109288	1	4.6963e-05	42	31.1037	-1.11882e-07
2	1	0	1	1	7245.18	-0.106201	-0.105377	0.00104898	1	4.7284e-05	42	31.4035	-1.10538e-07
2	1	0	1	1	7245.48	-0.109199	-0.108373	0.00100612	1	4.7592e-05	42	31.7033	-1.09036e-07
2	1	0	1	1	7245.78	-0.112198	-0.11136	0.000963717	1	4.78872e-05	42	32.0031	-1.07319e-07
2	1	0	1	1	7246.08	-0.115196	-0.114361	0.000922485	1	4.817e-05	42	32.303	-1.05497e-07
2	1	0	1	1	7246.38	-0.118195	-0.117354	0.000881238	1	4.84404e-05	42	32.6029	-1.03417e-07
2	1	0	1	1	7246.68	-0.121193	-0.120352	0.000840915	1	4.86984e-05	42	32.9027	-1.01206e-07
2	1	0	1	1	7246.98	-0.124191	-0.123353	0.000801416	1	4.89446e-05	42	33.2025	-9.88568e-08
2	1	0	1	1	7247.28	-0.12719	-0.126357	0.000762818	1	4.9179e-05	42	33.5023	-9.63872e-08
2	1	0	1	1	7247.58	-0.130189	-0.129362	0.000724575	1	4.9402e-05	42	33.8022	-9.37321e-08
2	1	0	1	1	7247.88	-0.133187	-0.132332	0.000686872	1	4.96135e-05	42	34.1021	-9.08953e-08
2	1	0	1	1	7248.18	-0.136185	-0.135321	0.000649859	1	4.98137e-05	42	34.4019	-8.79394e-08
2	1	0	1	1	7248.48	-0.139183	-0.138329	0.000613348	1	5.0003e-05	42	34.7017	-8.48436e-08
2	1	0	1	1	7248.78	-0.142182	-0.141316	0.000577449	1	5.01814e-05	42	35.0015	-8.1603e-08
2	1	0	1	1	7249.08	-0.14518	-0.144337	0.000542073	1	5.03491e-05	42	35.3013	-7.82411e-08
2	1	0	1	1	7249.38	-0.148178	-0.147324	0.000507421	1	5.05065e-05	42	35.6013	-7.47554e-08
2	1	0	1	1	7249.68	-0.151177	-0.150333	0.000472891	1	5.06534e-05	42	35.9011	-7.10909e-08
2	1	0	1	1	7250.38	-0.158173	-0.157302	0.000396272	1	5.09659e-05	43	36.6007	-6.23345e-08
2	1	0	1	1	7250.68	-0.161171	-0.160304	0.000363759	1	5.10797e-05	43	36.9005	-5.8312e-08
2	1	0	1	1	7250.98	-0.16417	-0.163304	0.00033161	1	5.11839e-05	43	37.2003	-5.41531e-08
2	1	0	1	1	7251.28	-0.167169	-0.166307	0.000299835	1	5.12785e-05	43	37.5002	-4.98645e-08
2	1	0	1	1	7251.58	-0.170167	-0.169307	0.000268424	1	5.13636e-05	43	37.8001	-4.54461e-08
2	1	0	1	1	7251.88	-0.173165	-0.172316	0.000237692	1	5.14394e-05	43	38.0999	-4.09582e-08
2	1	0	1	1	7252.18	-0.176163	-0.175321	0.000207089	1	5.15061e-05	43	38.3997	-3.63071e-08
2	1	0	1	1	7252.48	-0.179162	-0.178318	0.000176936	1	5.15636e-05	43	38.6995	-3.1551e-08
2	1	0	1	1	7252.78	-0.18216	-0.18132	0.000147229	1	5.16121e-05	43	38.9993	-2.66957e-08
2	1	0	1	1	7253.08	-0.185159	-0.184318	0.000117573	1	5.16518e-05	43	39.2993	-2.16708e-08
2	1	0	1	1	7253.38	-0.188157	-0.187287	8.8696e-05	1	5.16827e-05	43	39.5991	-1.66116e-08
2	1	0	1	1	7253.68	-0.191155	-0.190315	5.96959e-05	1	5.17049e-05	43	39.8989	-1.1361e-08
2	0	0	1	1	7254.38	-0.198152	-0.197319	-6.0073e-06	1	5.17313e-05	44	40.5985	1.18535e-09
2	0	0	1	1	7254.68	-0.20115	-0.200304	-3.3477e-05	1	5.17254e-05	44	0.2498	6.7056e-09
2	0	0	1	1	7254.98	-0.204149	-0.203285	-6.11119e-05	1	5.17112e-05	44	0.5497	1.24231e-08
2	0	0	1	1	7255.28	-0.207147	-0.206304	-8.82197e-05	1	5.16887e-05	44	0.8496	1.82e-08
2	0	0	1	1	7255.98	-0.214143	-0.213308	-0.000151392	1	5.16121e-05	43	1.5492	3.22931e-08
2	0	0	1	1	7256.28	-0.217141	-0.216279	-0.000177808	1	5.15627e-05	43	1.849	3.84562e-08
2	0	0	1	1	7256.58	-0.22014	-0.219282	-0.00020412	1	5.15054e-05	43	2.1488	4.47598e-08
2	0	0	1	1	7256.88	-0.223138	-0.222288	-0.000230518	1	5.14403e-05	43	2.4486	5.12414e-08
2	0	0	1	1	7257.18	-0.226136	-0.225268	-0.000256306	1	5.13672e-05	43	2.7485	5.77376e-08
2	0	0	1	1	7257.48	-0.229135	-0.228304	-0.00028207	1	5.12864e-05	43	3.0484	6.43978e-08
2	0	0	1	1	7257.78	-0.232133	-0.231275	-0.000307845	1	5.1198e-05	43	3.3482	7.11969e-08
2	0	0	1	1	7258.08	-0.235132	-0.234302	-0.00033325	1	5.11019e-05	43	3.648	7.80811e-08
2	0	0	1	1	7258.38	-0.23813	-0.237295	-0.000358982	1	5.0998e-05	43	3.9478	8.51847e-08
2	0	0	1	1	7258.68	-0.241128	-0.240303	-0.000384051	1	5.08865e-05	43	4.2477	9.22887e-08
2	0	0	1	1	7258.98	-0.244127	-0.243313	-0.000409416	1	5.07675e-05	43	4.5476	9.96165e-08
2	0	0	1	1	7259.2	-0.246326	-0.245494	-0.000428028	2	5.06754e-05	43	4.7674	1.05078e-07
2	0	0	1	1	7259.5	-0.249324	-0.248494	-0.000452698	2	5.05434e-05	43	5.0672	1.12493e-07
2	0	0	1	1	7259.8	-0.252323	-0.251483	-0.000478136	2	5.04038e-05	43	5.3671	1.20243e-07
2	0	0	1	1	7260.1	-0.255321	-0.254446	-0.000503016	2	5.02567e-05	43	5.667	1.27991e-07
2	0	0	1	1	7260.4	-0.258319	-0.257494	-0.000527716	2	5.01021e-05	43	5.9668	1.35884e-07
2	0	0	1	1	7260.7	-0.261317	-0.26046	-0.000552825	2	4.99401e-05	43	6.2666	1.43989e-07
2	0	0	1	1	7261	-0.264316	-0.263468	-0.000577677	2	4.97706e-05	43	6.5664	1.522e-07
2	0	0	1	1	7261.3	-0.267314	-0.26648	-0.000602808	2	4.95936e-05	43	6.8662	1.60636e-07
2	0	0	1	1	7261.6	-0.270313	-0.269463	-0.000627605	2	4.9409e-05	43	7.1662	1.69116e-07
2	0	0	1	1	7261.9	-0.273311	-0.27249	-0.000652568	2	4.92171e-05	43	7.466	1.77818e-07
2	0	0	1	1	7262.2	-0.276309	-0.275463	-0.000677839	2	4.90176e-05	43	7.7658	1.86719e-07
2	0	0	1	1	7262.5	-0.279308	-0.278448	-0.000702879	2	4.88107e-05	43	8.0656	1.95715e-07
2	0	0	1	1	7262.8	-0.282306	-0.281451	-0.000727679	2	4.85963e-05	43	8.3654	2.04806e-07
2	0	0	1	1	7263.1	-0.285304	-0.28445	-0.000753062	2	4.83741e-05	43	8.6654	2.14208e-07
2	0	0	1	1	7263.39	-0.288303	-0.287456	-0.000778478	2	4.81445e-05	43	8.9652	2.23778e-07
2	0	0	1	1	7263.69	-0.291301	-0.290465	-0.000803856	2	4.79073e-05	43	9.265	2.33492e-07
2	0	0	1	1	7263.99	-0.2943	-0.293453	-0.000829174	2	4.76625e-05	43	9.5648	2.43323e-07
2	0	0	1	1	7264.24	-0.293251	-0.294043	-0.000744487	2	4.74596e-05	43	9.8151	2.18911e-07
2	0	0	1	1	7264.54	-0.290252	-0.291028	-0.000676966	2	4.72482e-05	43	10.115	1.97016e-07
2	0	0	1	1	7264.84	-0.287253	-0.288033	-0.000637856	2	4.70514e-05	43	10.4148	1.83724e-07
2	0	0	1	1	7265.14	-0.284255	-0.285038	-0.000605935	2	4.68651e-05	43	10.7146	1.72715e-07
2	0	0	1	1	7265.44	-0.281257	-0.282049	-0.000577066	2	4.66879e-05	43	11.0144	1.62761e-07
2	0	0	1	1	7265.74	-0.278258	-0.279055	-0.000549771	2	4.6519e-05	43	11.3143	1.53416e-07
2	0	0	1	1	7266.04	-0.27526	-0.276067	-0.000523302	2	4.63581e-05	43	11.6142	1.44466e-07
2	0	0	1	1	7266.34	-0.272262	-0.273079	-0.000497638	2	4.62052e-05	43	11.914	1.35894e-07
2	0	0	1	1	7266.64	-0.269263	-0.270073	-0.000472775	2	4.60597e-05	43	12.2138	1.27684e-07
2	0	0	1	1	7266.94	-0.266265	-0.267077	-0.000447708	2	4.59217e-05	43	12.5136	1.19572e-07
2	0	0	1	1	7267.24	-0.263266	-0.26407	-0.000423347	2	4.57911e-05	43	12.8135	1.11793e-07
2	0	0	1	1	7267.54	-0.260268	-0.26107	-0.000398541	2	4.56679e-05	43	13.1134	1.04047e-07
2	0	0	1	1	7267.84	-0.25727	-0.258044	-0.000374276	2	4.55521e-05	43	13.4132	9.65798e-08
2	0	0	1	1	7268.14	-0.254271	-0.255054	-0.000349971	2	4.54435e-05	43	13.713	8.92613e-08
2	0	0	1	1	7268.44	-0.251273	-0.252074	-0.000325691	2	4.53423e-05	43	14.0128	8.20985e-08
2	0	0	1	1	7268.74	-0.248274	-0.249033	-0.00030157	2	4.52483e-05	43	14.3126	7.51007e-08
2	0	0	1	1	7269.04	-0.245276	-0.246063	-0.000277273	2	4.51615e-05	43	14.6126	6.82266e-08
2	0	0	1	1	7269.34	-0.242278	-0.243046	-0.000252658	2	4.50821e-05	43	14.9124	6.14076e-08
2	0	0	1	1	7269.64	-0.239279	-0.240087	-0.000228298	2	4.50101e-05	43	15.2122	5.48113e-08
2	0	0	1	1	7269.94	-0.236281	-0.237054	-0.000203433	2	4.49454e-05	43	15.512	4.82247e-08
2	0	0	1	1	7270.24	-0.233283	-0.234071	-0.00017864	2	4.48881e-05	43	15.8118	4.18144e-08
2	0	0	1	1	7270.54	-0.230285	-0.231083	-0.000153972	2	4.48383e-05	43	16.1117	3.55804e-08
2	0	0	1	1	7270.84	-0.227286	-0.228098	-0.000128659	2	4.4796e-05	43	16.4116	2.93468e-08
2	0	0	1	1	7271.14	-0.224287	-0.225073	-0.00010304	2	4.47613e-05	43	16.7114	2.31916e-08
2	0	0	1	1	7271.44	-0.221289	-0.222087	-7.73695e-05	2	4.47343e-05	43	17.0112	1.71827e-08
2	0	0	1	1	7271.74	-0.218291	-0.219088	-5.18409e-05	2	4.47149e-05	43	17.311	1.13577e-08
2	1	0	1	1	7273.24	-0.203249	-0.20405	8.18009e-05	2	4.47104e-05	44	0.5022	-1.66915e-08
2	1	0	1	1	7273.74	-0.19825	-0.199035	0.00012805	2	4.47613e-05	44	1.002	-2.54865e-08
2	1	0	1	1	7274.24	-0.193254	-0.194026	0.000174618	2	4.4831e-05	43	1.5018	-3.38804e-08
2	1	0	1	1	7274.54	-0.190256	-0.191032	0.000202948	2	4.48876e-05	43	1.8016	-3.87695e-08
2	1	0	1	1	7274.84	-0.187257	-0.188026	0.000231881	2	4.49529e-05	43	2.1014	-4.35995e-08
2	1	0	1	1	7275.14	-0.184259	-0.185045	0.000261182	2	4.50268e-05	43	2.4012	-4.83304e-08
2	1	0	1	1	7275.44	-0.181261	-0.182044	0.000290849	2	4.51096e-05	43	2.701	-5.29472e-08
2	1	0	1	1	7275.74	-0.178263	-0.179046	0.000320545	2	4.52013e-05	43	3.0009	-5.73923e-08
2	1	0	1	1	7276.04	-0.175264	-0.176045	0.000350838	2	4.5302e-05	43	3.3008	-6.17633e-08
2	1	0	1	1	7276.34	-0.172265	-0.173036	0.000381823	2	4.54119e-05	43	3.6006	-6.60692e-08
2	1	0	1	1	7276.64	-0.169267	-0.170024	0.000413196	2	4.55311e-05	43	3.9004	-7.02531e-08
2	1	0	1	1	7276.94	-0.166269	-0.167048	0.000444938	2	4.56597e-05	43	4.2002	-7.43259e-08
2	1	0	1	1	7277.24	-0.16327	-0.164046	0.000476831	2	4.57979e-05	43	4.5001	-7.82222e-08
2	1	0	1	1	7277.54	-0.160272	-0.161041	0.000508839	2	4.59458e-05	43	4.8	-8.19439e-08
2	1	0	1	1	7277.84	-0.157274	-0.158032	0.000542484	2	4.61034e-05	43	5.0998	-8.573e-08
2	1	0	1	1	7278.14	-0.154275	-0.155038	0.000575804	2	4.6271e-05	43	5.3996	-8.92716e-08
2	1	0	1	1	7278.44	-0.151277	-0.152035	0.000609706	2	4.64488e-05	43	5.6994	-9.26969e-08
2	1	0	1	1	7278.74	-0.148278	-0.14904	0.000644024	2	4.66367e-05	43	5.9992	-9.59855e-08
2	1	0	1	1	7279.04	-0.14528	-0.146048	0.000678997	2	4.68352e-05	43	6.2992	-9.91661e-08
2	1	0	1	1	7279.34	-0.142282	-0.143049	0.000714281	2	4.70441e-05	43	6.599	-1.02177e-07
2	1	0	1	1	7279.64	-0.139283	-0.140052	0.000750353	2	4.72637e-05	43	6.8988	-1.05088e-07
2	1	0	1	1	7279.94	-0.136285	-0.137046	0.000787145	2	4.74942e-05	43	7.1986	-1.07875e-07
2	1	0	1	1	7280.24	-0.133287	-0.134035	0.000823907	2	4.77358e-05	43	7.4984	-1.10433e-07
2	1	0	1	1	7280.54	-0.130288	-0.131047	0.00086168	2	4.79887e-05	43	7.7984	-1.12921e-07
2	1	0	1	1	7280.84	-0.12729	-0.12803	0.000899255	2	4.82527e-05	43	8.0982	-1.15132e-07
2	1	0	1	1	7281.14	-0.124291	-0.12505	0.000938519	2	4.85282e-05	43	8.398	-1.17362e-07
2	1	0	1	1	7281.44	-0.121293	-0.12206	0.000977733	2	4.88154e-05	43	8.6978	-1.19342e-07
2	1	0	1	1	7281.74	-0.118295	-0.119035	0.00101777	2	4.91146e-05	43	8.9976	-1.2115e-07
2	1	0	1	1	7282.04	-0.115297	-0.116063	0.00105792	2	4.94259e-05	43	9.2975	-1.22786e-07
2	1	0	1	1	7282.54	-0.110299	-0.111068	0.00113354	2	4.99699e-05	43	9.7973	-1.259e-07
2	1	0	1	1	7283.04	-0.105302	-0.106091	0.00120238	2	5.05436e-05	42	10.297	-1.27561e-07
2	1	0	1	1	7283.34	-0.102303	-0.103116	0.00124318	2	5.09101e-05	42	10.5968	-1.28191e-07
2	1	0	1	1	7283.64	-0.0993048	-0.100096	0.0012859	2	5.12892e-05	42	10.8966	-1.28714e-07
2	1	0	1	1	7283.94	-0.0963065	-0.0971122	0.00132969	2	5.16812e-05	42	11.1964	-1.29129e-07
2	1	0	1	1	7284.24	-0.0933081	-0.0941064	0.0013746	2	5.2087e-05	42	11.4964	-1.29358e-07
2	1	0	1	1	7284.54	-0.0903097	-0.091116	0.00141988	2	5.25059e-05	42	11.7962	-1.29373e-07
2	1	0	1	1	7284.84	-0.0873113	-0.0881136	0.00146634	2	5.29386e-05	42	12.096	-1.29205e-07
2	1	0	1	1	7285.14	-0.0843129	-0.0851177	0.00151373	2	5.33853e-05	42	12.3958	-1.28846e-07
2	1	0	1	1	7285.44	-0.0813145	-0.0821329	0.00156109	2	5.38462e-05	42	12.6956	-1.28217e-07
2	1	0	1	1	7285.74	-0.0783168	-0.0791104	0.00160964	2	5.43217e-05	42	12.9955	-1.27339e-07
2	1	0	1	1	7286.04	-0.0753178	-0.0761151	0.00165902	2	5.48119e-05	42	13.2954	-1.26276e-07
2	1	0	1	1	7286.34	-0.0723194	-0.0731096	0.0017092	2	5.53168e-05	42	13.5952	-1.24959e-07
2	1	0	1	1	7286.64	-0.069321	-0.0701397	0.00175883	2	5.58366e-05	42	13.895	-1.23364e-07
2	1	0	1	1	7286.94	-0.0663226	-0.0671319	0.00181012	2	5.63717e-05	42	14.1948	-1.21517e-07
2	1	0	1	1	7287.24	-0.0633242	-0.0641312	0.00186282	2	5.69224e-05	42	14.4947	-1.19465e-07
2	1	0	1	1	7287.54	-0.0603259	-0.061134	0.00191463	2	5.74888e-05	42	14.7946	-1.17049e-07
2	1	0	1	1	7287.84	-0.0573275	-0.0581167	0.0019684	2	5.8071e-05	42	15.0944	-1.14397e-07
2	1	0	1	1	7288.14	-0.0543291	-0.0551344	0.00202306	2	5.86694e-05	42	15.3942	-1.1154e-07
2	1	0	1	1	7288.44	-0.0513307	-0.052135	0.00207632	2	5.92839e-05	42	15.694	-1.08249e-07
2	1	0	1	1	7288.74	-0.0483317	-0.049139	0.00213137	2	5.9915e-05	42	15.9939	-1.04733e-07
2	1	0	1	1	7289.04	-0.045334	-0.0461436	0.00218732	2	6.05626e-05	42	16.2938	-1.00931e-07
2	1	0	1	1	7289.34	-0.0423356	-0.0431556	0.00224365	2	6.12269e-05	42	16.5936	-9.68263e-08
2	1	0	1	1	7289.64	-0.0393372	-0.0401424	0.00230125	2	6.19083e-05	42	16.8934	-9.23776e-08
2	1	0	1	1	7289.94	-0.0363388	-0.0371478	0.00235897	2	6.26068e-05	42	17.1932	-8.76306e-08
2	1	0	1	1	7290.24	-0.0333404	-0.0341574	0.00241774	2	6.33229e-05	42	17.493	-8.25838e-08
2	1	0	1	1	7290.54	-0.030342	-0.0311492	0.00247673	2	6.40571e-05	42	17.793	-7.71483e-08
2	1	0	1	1	7290.84	-0.0273437	-0.0281385	0.00253673	2	6.48087e-05	42	18.0928	-7.13799e-08
2	1	0	1	1	7291.14	-0.0243453	-0.0251545	0.00259716	2	6.55783e-05	42	18.3926	-6.53303e-08
2	1	0	1	1	7291.44	-0.0213469	-0.0221502	0.00265866	2	6.63662e-05	42	18.6924	-5.88897e-08
2	1	0	1	1	7291.73	-0.0183485	-0.0191549	0.00272035	2	6.71725e-05	42	18.9922	-5.2108e-08
2	1	0	1	1	7292.03	-0.015351	-0.0161513	0.00278191	2	6.79977e-05	42	19.2921	-4.49313e-08
2	1	0	1	1	7292.33	-0.0123517	-0.0131662	0.0028453	2	6.88415e-05	42	19.592	-3.74616e-08
2	1	0	1	1	7292.63	-0.00935336	-0.0101735	0.00290872	2	6.97041e-05	42	19.8918	-2.95918e-08
2	1	0	1	1	7292.93	-0.00635498	-0.00715724	0.00297141	2	7.05855e-05	42	20.1916	-2.12671e-08
2	1	0	1	1	7293.23	-0.0033566	-0.00416031	0.00303612	2	7.14861e-05	42	20.4914	-1.26312e-08
2	1	0	1	1	7293.53	-0.00035844	-0.00116979	0.00310147	2	7.24065e-05	42	20.7913	-3.62808e-09
2	1	0	1	0	7293.75	-0.00175746	-0.000880211	0.00302997	2	7.30712e-05	42	21.0066	-2.66701e-09
2	1	0	1	0	7294.05	-0.00475584	-0.00391426	0.00293079	2	7.39637e-05	42	21.3064	-1.14719e-08
2	1	0	1	0	7294.35	-0.00775467	-0.0069206	0.00284748	2	7.48298e-05	42	21.6063	-1.97063e-08
2	1	0	1	0	7294.65	-0.0107526	-0.00990833	0.00276776	2	7.56715e-05	42	21.9062	-2.74239e-08
2	1	0	1	0	7294.95	-0.013751	-0.0128815	0.0026914	2	7.64895e-05	42	22.206	-3.46693e-08
2	1	0	1	0	7295.25	-0.0167494	-0.0158738	0.00261779	2	7.72853e-05	42	22.5058	-4.15543e-08
2	1	0	1	0	7295.55	-0.0197478	-0.0189265	0.00254544	2	7.80593e-05	42	22.8056	-4.81762e-08
2	1	0	1	0	7295.85	-0.0227461	-0.0218927	0.00247601	2	7.88118e-05	42	23.1054	-5.42064e-08
2	1	0	1	0	7296.15	-0.0257445	-0.0249019	0.0024075	2	7.95441e-05	42	23.4054	-5.99513e-08
2	1	0	1	0	7296.45	-0.0287429	-0.0278933	0.0023402	2	8.02557e-05	42	23.7052	-6.52759e-08
2	1	0	1	0	7296.75	-0.0317413	-0.0308697	0.00227453	2	8.09473e-05	42	24.005	-7.02139e-08
2	1	0	1	0	7297.05	-0.0347397	-0.0338814	0.00221061	2	8.16197e-05	42	24.3048	-7.48988e-08
2	1	0	1	0	7297.35	-0.0377381	-0.0368989	0.00214856	2	8.2273e-05	42	24.6046	-7.92796e-08
2	1	0	1	0	7297.65	-0.0407364	-0.0398976	0.00208678	2	8.29083e-05	42	24.9046	-8.32574e-08
2	1	0	1	0	7297.95	-0.0437348	-0.0428809	0.00202621	2	8.35247e-05	42	25.2044	-8.68859e-08
2	1	0	1	0	7298.25	-0.0467332	-0.0458776	0.00196747	2	8.41232e-05	42	25.5042	-9.02628e-08
2	1	0	1	0	7298.55	-0.0497316	-0.0488608	0.00190911	2	8.47042e-05	42	25.804	-9.32805e-08
2	1	0	1	0	7298.85	-0.05273	-0.0518707	0.00185304	2	8.5268e-05	42	26.1038	-9.61183e-08
2	1	0	1	0	7299.15	-0.0557277	-0.054872	0.00179654	2	8.58151e-05	42	26.4037	-9.85797e-08
2	1	0	1	0	7299.45	-0.0587267	-0.0578518	0.00174181	2	8.63456e-05	42	26.7036	-1.00767e-07
2	1	0	1	0	7299.75	-0.0617251	-0.0608598	0.00168783	2	8.68597e-05	42	27.0034	-1.02721e-07
2	1	0	1	0	7300.05	-0.0647235	-0.0638787	0.00163547	2	8.73578e-05	42	27.3032	-1.04472e-07
2	1	0	1	0	7300.35	-0.0677219	-0.066854	0.00158354	2	8.78403e-05	42	27.603	-1.05866e-07
2	1	0	1	0	7300.65	-0.0707205	-0.0698553	0.00153328	2	8.83075e-05	42	27.9029	-1.07107e-07
2	1	0	1	0	7300.95	-0.0737186	-0.0728434	0.00148279	2	8.87597e-05	42	28.2028	-1.08011e-07
2	1	0	1	0	7301.25	-0.076717	-0.0758682	0.00143412	2	8.91969e-05	42	28.5026	-1.08804e-07
2	1	0	1	0	7301.55	-0.0797154	-0.0788487	0.00138566	2	8.96194e-05	42	28.8024	-1.09257e-07
2	1	0	1	0	7301.84	-0.0827138	-0.0818512	0.00133811	2	9.00277e-05	42	29.1022	-1.09526e-07
2	1	0	1	0	7302.14	-0.0857131	-0.0848644	0.00129233	2	9.04221e-05	42	29.4021	-1.09673e-07
2	1	0	1	0	7302.44	-0.0887106	-0.0878659	0.00124665	2	9.08028e-05	42	29.702	-1.09538e-07
2	1	0	1	0	7302.74	-0.0917089	-0.090856	0.00120212	2	9.11698e-05	42	30.0018	-1.0922e-07
2	1	0	1	0	7303.04	-0.0947073	-0.0938642	0.00115822	2	9.15235e-05	42	30.3016	-1.08715e-07
2	1	0	1	0	7303.34	-0.0977057	-0.0968475	0.00111532	2	9.18642e-05	42	30.6014	-1.08016e-07
2	1	0	1	0	7303.64	-0.100704	-0.0998627	0.00107211	2	9.21921e-05	42	30.9012	-1.07064e-07
2	1	0	1	0	7303.94	-0.103702	-0.102829	0.00103066	2	9.25073e-05	42	31.2012	-1.05982e-07
2	1	0	1	0	7304.24	-0.106701	-0.10584	0.000989273	2	9.28101e-05	42	31.501	-1.04704e-07
2	1	0	1	0	7304.54	-0.109699	-0.108846	0.000948943	2	9.31006e-05	42	31.8008	-1.03289e-07
2	1	0	1	0	7304.84	-0.112698	-0.111813	0.000909501	2	9.33792e-05	42	32.1006	-1.01694e-07
2	1	0	1	0	7305.14	-0.115696	-0.114839	0.000870407	2	9.36459e-05	42	32.4004	-9.99564e-08
2	1	0	1	0	7305.44	-0.118694	-0.117819	0.000832588	2	9.39012e-05	42	32.7003	-9.80947e-08
2	1	0	1	0	7305.74	-0.121693	-0.12083	0.000794259	2	9.4145e-05	42	33.0002	-9.59702e-08
2	1	0	1	0	7306.04	-0.124691	-0.123836	0.000757396	2	9.43776e-05	42	33.3	-9.37927e-08
2	1	0	1	0	7306.34	-0.12769	-0.12682	0.000721255	2	9.45993e-05	42	33.5998	-9.14697e-08
2	1	0	1	0	7306.64	-0.130688	-0.129819	0.000685162	2	9.481e-05	42	33.8996	-8.89471e-08
2	1	0	1	0	7306.94	-0.133686	-0.132805	0.000649509	2	9.50101e-05	42	34.1995	-8.62578e-08
2	1	0	1	0	7307.24	-0.136685	-0.135833	0.000614478	2	9.51996e-05	42	34.4994	-8.34664e-08
2	1	0	1	0	7307.54	-0.139683	-0.138819	0.000580696	2	9.53787e-05	42	34.7992	-8.06116e-08
2	1	0	1	0	7307.84	-0.142681	-0.141827	0.000546577	2	9.55475e-05	42	35.099	-7.75191e-08
2	1	0	1	0	7308.14	-0.14568	-0.144828	0.000513268	2	9.57064e-05	42	35.3988	-7.43355e-08
2	1	0	1	0	7308.44	-0.148679	-0.147833	0.000480378	2	9.58552e-05	42	35.6987	-7.10159e-08
2	1	0	1	0	7308.74	-0.151677	-0.150822	0.000448265	2	9.59944e-05	42	35.9986	-6.76084e-08
2	1	0	1	0	7309.44	-0.158673	-0.157816	0.000374785	2	9.62907e-05	43	36.6982	-5.91473e-08
2	1	0	1	0	7309.74	-0.161671	-0.160782	0.00034401	2	9.63984e-05	43	36.998	-5.53107e-08
2	1	0	1	0	7310.04	-0.16467	-0.163828	0.000313816	2	9.6497e-05	43	37.2978	-5.14119e-08
2	1	0	1	0	7310.34	-0.167668	-0.166798	0.000283617	2	9.65865e-05	43	37.5976	-4.73067e-08
2	1	0	1	0	7310.64	-0.170666	-0.169796	0.000254286	2	9.66671e-05	43	37.8975	-4.31766e-08
2	1	0	1	0	7310.94	-0.173665	-0.172787	0.000224825	2	9.67389e-05	43	38.1974	-3.88469e-08
2	1	0	1	0	7311.24	-0.176663	-0.175779	0.000195899	2	9.68019e-05	43	38.4972	-3.44349e-08
2	1	0	1	0	7311.54	-0.179662	-0.178787	0.000167414	2	9.68563e-05	43	38.797	-2.99315e-08
2	1	0	1	0	7311.84	-0.18266	-0.181776	0.000139095	2	9.69022e-05	43	39.0968	-2.52842e-08
2	1	0	1	0	7312.14	-0.185659	-0.1848	0.000111402	2	9.69398e-05	43	39.3967	-2.0587e-08
2	1	0	1	0	7312.44	-0.188657	-0.187786	8.34714e-05	2	9.69689e-05	43	39.6966	-1.56748e-08
2	1	0	1	0	7312.74	-0.191655	-0.190773	5.63121e-05	2	9.69899e-05	43	39.9964	-1.07428e-08
2	0	0	1	0	7313.44	-0.198651	-0.197785	-5.93409e-06	2	9.70146e-05	44	0.000000000000000E+000	1.17367e-09
2	0	0	1	0	7313.74	-0.20165	-0.200803	-3.24733e-05	2	9.70088e-05	44	0.2998	6.52075e-09
2	0	0	1	0	7314.04	-0.204648	-0.203791	-5.85557e-05	2	9.69951e-05	44	0.5996	1.19331e-08
2	0	0	1	0	7314.34	-0.207646	-0.206802	-8.46208e-05	2	9.69736e-05	44	0.8995	1.74998e-08
2	0	0	1	0	7314.84	-0.212644	-0.211792	-0.000127758	2	9.69219e-05	44	1.3993	2.7058e-08
2	0	0	1	0	7315.34	-0.217641	-0.21681	-0.000170218	2	9.68529e-05	43	1.899	3.69049e-08
2	0	0	1	0	7315.64	-0.220639	-0.219796	-0.000195333	2	9.67982e-05	43	2.1988	4.29335e-08
2	0	0	1	0	7315.94	-0.223638	-0.222819	-0.000220204	2	9.67358e-05	43	2.4986	4.90656e-08
2	0	0	1	0	7316.24	-0.226636	-0.225802	-0.000244942	2	9.66661e-05	43	2.7984	5.53083e-08
2	0	0	1	0	7316.54	-0.229635	-0.228793	-0.000269479	2	9.65889e-05	43	3.0984	6.1655e-08
2	0	0	1	0	7316.84	-0.232633	-0.231788	-0.000294013	2	9.65044e-05	43	3.3982	6.81486e-08
2	0	0	1	0	7317.14	-0.235631	-0.234781	-0.000318355	2	9.64125e-05	43	3.698	7.47437e-08
2	0	0	1	0	7317.44	-0.23863	-0.237798	-0.000342984	2	9.63133e-05	43	3.9978	8.15609e-08
2	0	0	1	0	7317.74	-0.241628	-0.240781	-0.000367131	2	9.62069e-05	43	4.2976	8.83982e-08
2	0	0	1	0	7318.04	-0.244626	-0.243793	-0.000391229	2	9.60931e-05	43	4.5975	9.53789e-08
2	0	0	1	0	7318.26	-0.246825	-0.245981	-0.000408982	3	9.60051e-05	43	4.8174	1.00602e-07
2	0	0	1	0	7318.56	-0.249824	-0.248993	-0.000433096	3	9.58788e-05	43	5.1172	1.07838e-07
2	0	0	1	0	7318.86	-0.252822	-0.251963	-0.000457405	3	9.57453e-05	43	5.417	1.15249e-07
2	0	0	1	0	7319.16	-0.25582	-0.254988	-0.000481256	3	9.56045e-05	43	5.7169	1.22715e-07
2	0	0	1	0	7319.46	-0.258819	-0.257993	-0.000505418	3	9.54565e-05	43	6.0168	1.30394e-07
2	0	0	1	0	7319.76	-0.261817	-0.260988	-0.000529309	3	9.53014e-05	43	6.3166	1.38143e-07
2	0	0	1	0	7320.06	-0.264816	-0.263977	-0.000553437	3	9.51391e-05	43	6.6164	1.46094e-07
2	0	0	1	0	7320.35	-0.267814	-0.266991	-0.000577405	3	9.49696e-05	43	6.9162	1.54162e-07
2	0	0	1	0	7320.65	-0.270813	-0.269978	-0.000601381	3	9.47928e-05	43	7.2161	1.6236e-07
2	0	0	1	0	7320.95	-0.273811	-0.272981	-0.000625571	3	9.46087e-05	43	7.516	1.70769e-07
2	0	0	1	0	7321.25	-0.276809	-0.275995	-0.000649962	3	9.44175e-05	43	7.8158	1.79387e-07
2	0	0	1	0	7321.55	-0.279807	-0.278993	-0.000674514	3	9.4219e-05	43	8.1156	1.88184e-07
2	0	0	1	0	7321.85	-0.282806	-0.281973	-0.000698221	3	9.40132e-05	43	8.4154	1.96879e-07
2	0	0	1	0	7322.15	-0.285805	-0.284969	-0.000722651	3	9.38001e-05	43	8.7153	2.05933e-07
2	0	0	1	0	7322.45	-0.288803	-0.287973	-0.000747036	3	9.35797e-05	43	9.0152	2.15127e-07
2	0	0	1	0	7322.75	-0.291801	-0.290975	-0.000771556	3	9.3352e-05	43	9.315	2.24504e-07
2	0	0	1	0	7323.05	-0.294774	-0.293963	-0.000796589	3	9.31188e-05	43	9.6123	2.34168e-07
2	0	0	1	0	7323.3	-0.29275	-0.293563	-0.000687807	3	9.29283e-05	43	9.865	2.01915e-07
2	0	0	1	0	7323.6	-0.289752	-0.290556	-0.000632644	3	9.27311e-05	43	10.165	1.83818e-07
2	0	0	1	0	7323.9	-0.286754	-0.287549	-0.000595723	3	9.25473e-05	43	10.4648	1.713e-07
2	0	0	1	0	7324.2	-0.283755	-0.284546	-0.000564974	3	9.23734e-05	43	10.7646	1.60761e-07
2	0	0	1	0	7324.5	-0.280757	-0.281563	-0.0005371	3	9.22083e-05	43	11.0644	1.51227e-07
2	0	0	1	0	7324.8	-0.277759	-0.278551	-0.00051059	3	9.20514e-05	43	11.3642	1.42226e-07
2	0	0	1	0	7325.1	-0.274761	-0.275571	-0.000485269	3	9.19021e-05	43	11.6641	1.33726e-07
2	0	0	1	0	7325.4	-0.271762	-0.272573	-0.000459971	3	9.17604e-05	43	11.964	1.25376e-07
2	0	0	1	0	7325.7	-0.268763	-0.269552	-0.000436248	3	9.16261e-05	43	12.2638	1.17592e-07
2	0	0	1	0	7326	-0.265765	-0.266562	-0.000411983	3	9.1499e-05	43	12.5636	1.09819e-07
2	0	0	1	0	7326.3	-0.262767	-0.263559	-0.000388181	3	9.13791e-05	43	12.8634	1.02309e-07
2	0	0	1	0	7326.6	-0.259768	-0.260558	-0.000363985	3	9.12663e-05	43	13.1633	9.48391e-08
2	0	0	1	0	7326.9	-0.25677	-0.257576	-0.000340405	3	9.11606e-05	43	13.4632	8.76804e-08
2	0	0	1	0	7327.2	-0.253772	-0.254549	-0.000316438	3	9.10621e-05	43	13.763	8.05488e-08
2	0	0	1	0	7327.5	-0.250773	-0.251573	-0.000293562	3	9.09706e-05	43	14.0628	7.38524e-08
2	0	0	1	0	7327.8	-0.247775	-0.248531	-0.000270222	3	9.08861e-05	43	14.3626	6.71585e-08
2	0	0	1	0	7328.1	-0.244776	-0.245565	-0.000246849	3	9.08087e-05	43	14.6625	6.06173e-08
2	0	0	1	0	7328.4	-0.241778	-0.24258	-0.000223017	3	9.07383e-05	43	14.9624	5.40995e-08
2	0	0	1	0	7328.7	-0.23878	-0.239573	-0.000199343	3	9.0675e-05	43	15.2622	4.77573e-08
2	0	0	1	0	7329	-0.235781	-0.236581	-0.000175312	3	9.06189e-05	43	15.562	4.14754e-08
2	0	0	1	0	7329.3	-0.232783	-0.233595	-0.000151527	3	9.05699e-05	43	15.8618	3.53959e-08
2	0	0	1	0	7329.6	-0.229784	-0.230581	-0.000127161	3	9.05282e-05	43	16.1616	2.9321e-08
2	0	0	1	0	7329.9	-0.226786	-0.227577	-0.000103207	3	9.04937e-05	43	16.4616	2.34877e-08
2	0	0	1	0	7330.2	-0.223788	-0.22458	-7.87249e-05	3	9.04664e-05	43	16.7614	1.76801e-08
2	0	0	1	0	7330.5	-0.220789	-0.22157	-5.40407e-05	3	9.04466e-05	43	17.0612	1.19738e-08
2	1	0	1	0	7332	-0.205797	-0.206584	7.28481e-05	3	9.04353e-05	44	0.4498	-1.50493e-08
2	1	0	1	0	7332.3	-0.202799	-0.203582	9.90186e-05	3	9.0461e-05	44	0.7496	-2.01584e-08
2	1	0	1	0	7333	-0.195803	-0.196587	0.000161484	3	9.0545e-05	43	1.4492	-3.17457e-08
2	1	0	1	0	7333.3	-0.192803	-0.193584	0.000188237	3	9.05975e-05	43	1.7491	-3.64396e-08
2	1	0	1	0	7333.6	-0.189806	-0.190583	0.00021553	3	9.0658e-05	43	2.049	-4.10764e-08
2	1	0	1	0	7333.9	-0.186808	-0.187598	0.000243298	3	9.07268e-05	43	2.3488	-4.56421e-08
2	1	0	1	0	7334.2	-0.183809	-0.184594	0.000271408	3	9.0804e-05	43	2.6486	-5.01003e-08
2	1	0	1	0	7334.5	-0.180811	-0.181589	0.00029965	3	9.08896e-05	43	2.9484	-5.44132e-08
2	1	0	1	0	7334.8	-0.177812	-0.178589	0.000328611	3	9.09838e-05	43	3.2482	-5.86863e-08
2	1	0	1	0	7335.1	-0.174814	-0.175589	0.000357547	3	9.10868e-05	43	3.5482	-6.27815e-08
2	1	0	1	0	7335.4	-0.171816	-0.17258	0.000387126	3	9.11985e-05	43	3.848	-6.68101e-08
2	1	0	1	0	7335.7	-0.168817	-0.169605	0.000417239	3	9.13191e-05	43	4.1478	-7.0766e-08
2	1	0	1	0	7336	-0.165819	-0.166596	0.000447624	3	9.14488e-05	43	4.4476	-7.45722e-08
2	1	0	1	0	7336.3	-0.162821	-0.1636	0.00047838	3	9.15876e-05	43	4.7474	-7.8263e-08
2	1	0	1	0	7336.6	-0.159823	-0.160587	0.000509817	3	9.17359e-05	43	5.0473	-8.18698e-08
2	1	0	1	0	7336.9	-0.156824	-0.157579	0.000541574	3	9.18935e-05	43	5.3472	-8.53405e-08
2	1	0	1	0	7337.2	-0.153825	-0.154603	0.000573455	3	9.20606e-05	43	5.647	-8.86577e-08
2	1	0	1	0	7337.5	-0.150827	-0.151584	0.000606032	3	9.22374e-05	43	5.9468	-9.18649e-08
2	1	0	1	0	7337.8	-0.147829	-0.148588	0.000639266	3	9.2424e-05	43	6.2466	-9.49871e-08
2	1	0	1	0	7338.1	-0.14483	-0.145623	0.000672636	3	9.26207e-05	43	6.5465	-9.7951e-08
2	1	0	1	0	7338.4	-0.141832	-0.142608	0.000706476	3	9.28276e-05	43	6.8464	-1.00749e-07
2	1	0	1	0	7338.7	-0.138834	-0.139599	0.000740757	3	9.30446e-05	43	7.1462	-1.03409e-07
2	1	0	1	0	7339	-0.135835	-0.136598	0.000776105	3	9.3272e-05	43	7.446	-1.06014e-07
2	1	0	1	0	7339.3	-0.132837	-0.133615	0.000811875	3	9.351e-05	43	7.7458	-1.08478e-07
2	1	0	1	0	7339.6	-0.129837	-0.130597	0.000847497	3	9.37588e-05	43	8.0457	-1.1068e-07
2	1	0	1	0	7339.89	-0.12684	-0.127595	0.000884026	3	9.40185e-05	43	8.3456	-1.12798e-07
2	1	0	1	0	7340.19	-0.123842	-0.124607	0.000920933	3	9.42892e-05	43	8.6454	-1.14754e-07
2	1	0	1	0	7340.49	-0.120843	-0.121609	0.000958631	3	9.4571e-05	43	8.9452	-1.16578e-07
2	1	0	1	0	7340.79	-0.117845	-0.118609	0.000997151	3	9.48642e-05	43	9.245	-1.18271e-07
2	1	0	1	0	7341.09	-0.114846	-0.115616	0.00103553	3	9.5169e-05	43	9.5448	-1.19724e-07
2	1	0	1	0	7341.39	-0.111848	-0.112627	0.00107513	3	9.54856e-05	43	9.8448	-1.2109e-07
2	1	0	1	0	7342.09	-0.104852	-0.105668	0.00117551	3	9.62606e-05	42	10.5444	-1.24213e-07
2	1	0	1	0	7342.39	-0.101853	-0.102666	0.00121372	3	9.66187e-05	42	10.8442	-1.24607e-07
2	1	0	1	0	7342.69	-0.0988551	-0.0996622	0.00125453	3	9.69887e-05	42	11.144	-1.25029e-07
2	1	0	1	0	7342.99	-0.0958567	-0.0966823	0.00129603	3	9.7371e-05	42	11.4438	-1.25303e-07
2	1	0	1	0	7343.29	-0.0928579	-0.0936914	0.00133954	3	9.77662e-05	42	11.7437	-1.25503e-07
2	1	0	1	0	7343.59	-0.0898599	-0.0907026	0.00138191	3	9.81743e-05	42	12.0436	-1.25343e-07
2	1	0	1	0	7343.89	-0.0868615	-0.087665	0.00142625	3	9.85953e-05	42	12.3434	-1.25032e-07
2	1	0	1	0	7344.19	-0.0838632	-0.0846617	0.00147115	3	9.90296e-05	42	12.6432	-1.2455e-07
2	1	0	1	0	7344.49	-0.0808648	-0.0816995	0.00151733	3	9.94774e-05	42	12.943	-1.23965e-07
2	1	0	1	0	7344.79	-0.0778664	-0.0786965	0.00156285	3	9.99392e-05	42	13.2428	-1.22991e-07
2	1	0	1	0	7345.09	-0.074868	-0.0756938	0.00161046	3	0.000100415	42	13.5428	-1.21902e-07
2	1	0	1	0	7345.39	-0.0718696	-0.0726869	0.00165792	3	0.000100905	42	13.8426	-1.20509e-07
2	1	0	1	0	7345.69	-0.0688713	-0.069712	0.00170662	3	0.00010141	42	14.1424	-1.18972e-07
2	1	0	1	0	7345.99	-0.0658729	-0.0667168	0.0017557	3	0.000101929	42	14.4422	-1.17135e-07
2	1	0	1	0	7346.29	-0.0628745	-0.0636959	0.00180469	3	0.000102462	42	14.742	-1.14951e-07
2	1	0	1	0	7346.59	-0.0598761	-0.0607159	0.00185551	3	0.000103012	42	15.042	-1.12659e-07
2	1	0	1	0	7346.89	-0.0568777	-0.0577156	0.00190561	3	0.000103575	42	15.3418	-1.09983e-07
2	1	0	1	0	7347.19	-0.0538793	-0.0547115	0.00195745	3	0.000104154	42	15.6416	-1.07095e-07
2	1	0	1	0	7347.49	-0.050881	-0.0517118	0.00200911	3	0.000104749	42	15.9414	-1.03894e-07
2	1	0	1	0	7347.79	-0.0478826	-0.048703	0.002063	3	0.00010536	42	16.2412	-1.00474e-07
2	1	0	1	0	7348.09	-0.0448846	-0.0457191	0.0021163	3	0.000105986	42	16.5411	-9.67555e-08
2	1	0	1	0	7348.39	-0.0418858	-0.0427284	0.00217042	3	0.000106629	42	16.841	-9.27387e-08
2	1	0	1	0	7348.69	-0.0388874	-0.0397321	0.00222457	3	0.000107288	42	17.1408	-8.83868e-08
2	1	0	1	0	7348.99	-0.035889	-0.0367477	0.00228127	3	0.000107964	42	17.4406	-8.38316e-08
2	1	0	1	0	7349.29	-0.0328907	-0.0337338	0.00233681	3	0.000108656	42	17.7404	-7.88295e-08
2	1	0	1	0	7349.59	-0.0298918	-0.0307374	0.0023936	3	0.000109365	42	18.0403	-7.35731e-08
2	1	0	1	0	7349.89	-0.0268939	-0.0277436	0.00244961	3	0.000110091	42	18.3402	-6.79609e-08
2	1	0	1	0	7350.19	-0.0238955	-0.0247415	0.00250777	3	0.000110835	42	18.64	-6.20462e-08
2	1	0	1	0	7350.49	-0.0208971	-0.0217319	0.00256642	3	0.000111595	42	18.9398	-5.57732e-08
2	1	0	1	0	7350.79	-0.0178988	-0.0187466	0.00262599	3	0.000112374	42	19.2396	-4.92285e-08
2	1	0	1	0	7351.09	-0.0149004	-0.0157408	0.00268661	3	0.00011317	42	19.5394	-4.22893e-08
2	1	0	1	0	7351.39	-0.011902	-0.012746	0.0027462	3	0.000113986	42	19.8394	-3.5003e-08
2	1	0	1	0	7351.69	-0.00890361	-0.00975116	0.00280795	3	0.000114818	42	20.1392	-2.73807e-08
2	1	0	1	0	7351.99	-0.00590522	-0.0067468	0.0028698	3	0.000115669	42	20.439	-1.9362e-08
2	1	0	1	0	7352.29	-0.00290684	-0.00375199	0.00293125	3	0.000116539	42	20.7388	-1.0998e-08
2	1	0	1	0	7352.57	-8.33653e-05	-0.000936102	0.00299064	3	0.000117375	42	21.0211	-2.79955e-09
2	1	0	1	1	7352.81	-0.00225719	-0.00145567	0.00289118	3	0.000118078	42	21.259	-4.2086e-09
2	1	0	1	1	7353.11	-0.00525557	-0.00443945	0.00280262	3	0.000118931	42	21.5588	-1.24421e-08
2	1	0	1	1	7353.41	-0.00825396	-0.00744402	0.00272341	3	0.000119759	42	21.8586	-2.02731e-08
2	1	0	1	1	7353.71	-0.0112517	-0.0104713	0.00264861	3	0.000120564	42	22.1585	-2.77344e-08
2	1	0	1	1	7354.01	-0.0142507	-0.0134464	0.00257456	3	0.000121348	42	22.4584	-3.46185e-08
2	1	0	1	1	7354.31	-0.0172491	-0.0164185	0.00250475	3	0.000122109	42	22.7582	-4.11242e-08
2	1	0	1	1	7354.61	-0.0202475	-0.0194086	0.0024364	3	0.00012285	42	23.058	-4.72872e-08
2	1	0	1	1	7354.91	-0.0232459	-0.0224189	0.00237026	3	0.00012357	42	23.3578	-5.31387e-08
2	1	0	1	1	7355.21	-0.0262445	-0.0254143	0.00230419	3	0.000124271	42	23.6577	-5.85596e-08
2	1	0	1	1	7355.51	-0.0292426	-0.0284234	0.0022408	3	0.000124952	42	23.9576	-6.3691e-08
2	1	0	1	1	7355.81	-0.032241	-0.0314112	0.00217766	3	0.000125614	42	24.2574	-6.84027e-08
2	1	0	1	1	7356.11	-0.0352394	-0.0344075	0.00211653	3	0.000126258	42	24.5572	-7.28245e-08
2	1	0	1	1	7356.41	-0.0382378	-0.037422	0.00205594	3	0.000126883	42	24.857	-7.69374e-08
2	1	0	1	1	7356.71	-0.0412371	-0.0404103	0.00199772	3	0.000127491	42	25.1569	-8.07287e-08
2	1	0	1	1	7357.01	-0.0442345	-0.0434104	0.00193934	3	0.000128081	42	25.4568	-8.41875e-08
2	1	0	1	1	7357.31	-0.0472329	-0.0464115	0.00188315	3	0.000128654	42	25.7566	-8.73998e-08
2	1	0	1	1	7357.61	-0.0502313	-0.049403	0.00182702	3	0.00012921	42	26.0564	-9.02602e-08
2	1	0	1	1	7357.91	-0.0532297	-0.0523952	0.00177267	3	0.00012975	42	26.3562	-9.28795e-08
2	1	0	1	1	7358.21	-0.0562281	-0.0553985	0.00171996	3	0.000130273	42	26.656	-9.52829e-08
2	1	0	1	1	7358.51	-0.0592265	-0.0584126	0.0016668	3	0.000130781	42	26.956	-9.73622e-08
2	1	0	1	1	7358.81	-0.0622248	-0.0613718	0.0016153	3	0.000131273	42	27.2558	-9.91336e-08
2	1	0	1	1	7359.1	-0.0652232	-0.0644001	0.00156578	3	0.00013175	42	27.5556	-1.00837e-07
2	1	0	1	1	7359.4	-0.0682216	-0.0673854	0.00151561	3	0.000132211	42	27.8554	-1.0213e-07
2	1	0	1	1	7359.7	-0.07122	-0.070394	0.00146714	3	0.000132658	42	28.1552	-1.03278e-07
2	1	0	1	1	7360	-0.0742177	-0.0733733	0.00141953	3	0.000133091	42	28.4551	-1.04156e-07
2	1	0	1	1	7360.3	-0.0772168	-0.0763847	0.00137277	3	0.00013351	42	28.755	-1.04858e-07
2	1	0	1	1	7360.6	-0.0802151	-0.079392	0.00132628	3	0.000133915	42	29.0548	-1.05296e-07
2	1	0	1	1	7360.9	-0.0832135	-0.082384	0.00128102	3	0.000134305	42	29.3546	-1.05535e-07
2	1	0	1	1	7361.2	-0.0862119	-0.0853816	0.00123629	3	0.000134683	42	29.6544	-1.05556e-07
2	1	0	1	1	7361.5	-0.0892103	-0.0883728	0.00119321	3	0.000135047	42	29.9543	-1.05447e-07
2	1	0	1	1	7361.8	-0.0922087	-0.0913663	0.00115013	3	0.000135398	42	30.2542	-1.05084e-07
2	1	0	1	1	7362.1	-0.095207	-0.0943662	0.00110795	3	0.000135737	42	30.554	-1.04553e-07
2	1	0	1	1	7362.4	-0.0982054	-0.0973746	0.00106647	3	0.000136063	42	30.8538	-1.03847e-07
2	1	0	1	1	7362.7	-0.101204	-0.100357	0.00102585	3	0.000136376	42	31.1536	-1.02951e-07
2	1	0	1	1	7363	-0.104203	-0.103388	0.00098575	3	0.000136678	42	31.4535	-1.01914e-07
2	1	0	1	1	7363.3	-0.107201	-0.106359	0.00094706	3	0.000136968	42	31.7534	-1.00728e-07
2	1	0	1	1	7363.6	-0.110199	-0.109362	0.00090823	3	0.000137246	42	32.0532	-9.9326e-08
2	1	0	1	1	7363.9	-0.113197	-0.112371	0.000870274	3	0.000137512	42	32.353	-9.77936e-08
2	1	0	1	1	7364.2	-0.116196	-0.115383	0.000832757	3	0.000137767	42	32.6528	-9.60863e-08
2	1	0	1	1	7364.5	-0.119194	-0.118376	0.000795989	3	0.000138012	42	32.9526	-9.42261e-08
2	1	0	1	1	7364.8	-0.122192	-0.121369	0.000759954	3	0.000138245	42	33.2526	-9.22351e-08
2	1	0	1	1	7365.1	-0.125191	-0.124374	0.000724619	3	0.000138467	42	33.5524	-9.0124e-08
2	1	0	1	1	7365.4	-0.128189	-0.127365	0.000689301	3	0.000138679	42	33.8522	-8.77927e-08
2	1	0	1	1	7365.7	-0.131188	-0.130362	0.00065443	3	0.000138881	42	34.152	-8.53127e-08
2	1	0	1	1	7366	-0.134186	-0.13335	0.000620704	3	0.000139072	42	34.4518	-8.27708e-08
2	1	0	1	1	7366.3	-0.137184	-0.136347	0.000587266	3	0.000139253	42	34.7517	-8.0072e-08
2	1	0	1	1	7366.6	-0.140183	-0.139365	0.000554929	3	0.000139424	42	35.0516	-7.73375e-08
2	1	0	1	1	7366.9	-0.143181	-0.142339	0.000522081	3	0.000139585	42	35.3514	-7.43125e-08
2	1	0	1	1	7367.2	-0.14618	-0.14535	0.000489765	3	0.000139737	42	35.6512	-7.11873e-08
2	1	0	1	1	7367.5	-0.149178	-0.148354	0.000458725	3	0.000139879	42	35.951	-6.80539e-08
2	1	0	1	1	7368.2	-0.156174	-0.155325	0.000387295	3	0.000140183	43	36.6506	-6.01565e-08
2	1	0	1	1	7368.5	-0.159173	-0.158321	0.000357242	3	0.000140295	43	36.9506	-5.65588e-08
2	1	0	1	1	7368.8	-0.162171	-0.161317	0.000327994	3	0.000140398	43	37.2504	-5.29112e-08
2	1	0	1	1	7369.1	-0.165169	-0.164318	0.0002988	3	0.000140491	43	37.5502	-4.90982e-08
2	1	0	1	1	7369.4	-0.168168	-0.167324	0.000269751	3	0.000140577	43	37.85	-4.51359e-08
2	1	0	1	1	7369.7	-0.171166	-0.170317	0.000241174	3	0.000140653	43	38.1498	-4.1076e-08
2	1	0	1	1	7370	-0.174164	-0.173319	0.000213075	3	0.000140721	43	38.4498	-3.693e-08
2	1	0	1	1	7370.3	-0.177163	-0.17631	0.000185193	3	0.000140781	43	38.7496	-3.26515e-08
2	1	0	1	1	7370.6	-0.180161	-0.179293	0.000157663	3	0.000140832	43	39.0494	-2.82678e-08
2	1	0	1	1	7370.9	-0.18316	-0.18231	0.000130558	3	0.000140875	43	39.3492	-2.3802e-08
2	1	0	1	1	7371.2	-0.186158	-0.185327	0.000103581	3	0.00014091	43	39.649	-1.91964e-08
2	1	0	1	1	7371.5	-0.189156	-0.188321	7.7249e-05	3	0.000140937	43	39.9489	-1.45476e-08
2	1	0	1	1	7371.8	-0.192155	-0.191312	5.05633e-05	3	0.000140957	43	40.2488	-9.67335e-09
2	0	0	1	1	7372.5	-0.199151	-0.198313	-9.66104e-06	3	0.000140978	44	0.05	1.91591e-09
2	0	0	1	1	7372.8	-0.202149	-0.201322	-3.48947e-05	3	0.000140971	44	0.3498	7.02506e-09
2	0	0	1	1	7373.1	-0.205148	-0.204325	-6.03265e-05	3	0.000140957	44	0.6496	1.23262e-08
2	0	0	1	1	7373.4	-0.208146	-0.207308	-8.53381e-05	3	0.000140935	44	0.9494	1.76913e-08
2	0	0	1	1	7373.9	-0.213142	-0.21234	-0.000126893	3	0.000140883	44	1.4492	2.69443e-08
2	0	0	1	1	7374.4	-0.218141	-0.217316	-0.000168062	3	0.000140815	43	1.949	3.65225e-08
2	0	0	1	1	7374.7	-0.221139	-0.220299	-0.000192191	3	0.000140761	43	2.2488	4.23395e-08
2	0	0	1	1	7375	-0.224137	-0.22331	-0.000216414	3	0.000140699	43	2.5486	4.83274e-08
2	0	0	1	1	7375.3	-0.227136	-0.226323	-0.00024024	3	0.000140631	43	2.8484	5.43717e-08
2	0	0	1	1	7375.6	-0.230135	-0.229309	-0.000264358	3	0.000140555	43	3.1483	6.06196e-08
2	0	0	1	1	7375.9	-0.233133	-0.232316	-0.0002882	3	0.000140472	43	3.4482	6.69536e-08
2	0	0	1	1	7376.2	-0.236131	-0.235311	-0.00031199	3	0.000140382	43	3.748	7.34147e-08
2	0	0	1	1	7376.5	-0.239129	-0.238295	-0.000335259	3	0.000140285	43	4.0478	7.98907e-08
2	0	0	1	1	7376.8	-0.242128	-0.241297	-0.000358979	3	0.000140181	43	4.3476	8.66203e-08
2	0	0	1	1	7377.08	-0.244926	-0.244087	-0.000380283	3	0.000140078	43	4.6274	9.28224e-08
2	0	0	1	1	7377.08	-0.245001	-0.244162	-0.000380877	3	0.000140075	43	4.6349	9.29957e-08