File: data_dir/600_B_immertest4/600_B_06_CV_C03.mpt
EC-Lab ASCII FILE
Nb header lines : 62

Cyclic Voltammetry

Run on channel : 3 (SN 13150)
User :
Electrode connection : standard
Potential control : Ewe
Ewe ctrl range : min = -1.00 V, max = 1.00 V
Ewe,I filtering : 5 Hz
Safety Limits :
	Do not start on E overload
Channel : Floating
Acquisition started on : 07/01/2024 16:51:05.709
Loaded Setting File :  C:\Users\mAtsuhitA\Desktop\Oyafuso\20240624_???????4\1540_A.mps
Saved on :
	File : 600_B_06_CV_C03.mpr
	Directory : C:\Users\mAtsuhitA\Desktop\Oyafuso\20240624_???????4\600_B\
	Host : 192.109.209.100
Device : VSP-300 (SN 0834)
Address : 192.109.209.128
EC-Lab for windows v11.50 (software)
Internet server v11.50 (firmware)
Command interpretor v11.50 (firmware)
Electrode material :
Initial state :
Electrolyte :
Comments :
Cable : standard
Electrode surface area : 0.001 cm2
Characteristic mass : 0.001 g
Equivalent Weight : 0.000 g/eq.
Density : 0.000 g/cm3
Volume (V) : 0.001 cm3
Text export
   Mode : Standard
   Time format : Elapsed
Cycle Definition : Charge/Discharge alternance
Ei (V)              0.000
vs.                 Eoc
dE/dt               10.000
dE/dt unit          mV/s
E1 (V)              -0.050
vs.                 Eoc
Step percent        50
N                   10
E range min (V)     -1.000
E range max (V)     1.000
I Range             Auto
I Range min         Unset
I Range max         Unset
I Range init        Unset
Bandwidth           8
E2 (V)              0.000
vs.                 Ref
nc cycles           2
Reverse Scan        1
Ef (V)              0.000
vs.                 Eoc

mode	ox/red	error	control changes	counter inc.	time/s	control/V	Ewe/V	<I>/mA	cycle number	(Q-Qo)/C	I Range	step time/s	P/W
2	1	0	0	0	254503	-0.247332	-0.24781	2.05103e-06	1	0.0000000E+000	45	254503	-5.08264e-10
2	0	0	1	0	254504	-0.254106	-0.253146	-3.93204e-05	1	-7.99936e-09	44	0.55	9.95382e-09
2	0	0	1	0	254504	-0.257106	-0.256126	-4.95976e-05	1	-2.14676e-08	44	0.85	1.27032e-08
2	0	0	1	0	254505	-0.260105	-0.259114	-6.09487e-05	1	-3.80594e-08	44	1.1498	1.57926e-08
2	0	0	1	0	254505	-0.263105	-0.262111	-6.94633e-05	1	-5.75497e-08	44	1.4498	1.82071e-08
2	0	0	1	0	254505	-0.266104	-0.265147	-8.01534e-05	1	-8.01152e-08	44	1.7498	2.12524e-08
2	0	0	1	0	254506	-0.269104	-0.26812	-8.95034e-05	1	-1.05449e-07	44	2.0498	2.39977e-08
2	0	0	1	0	254506	-0.272103	-0.271122	-9.88117e-05	1	-1.33691e-07	44	2.3496	2.67901e-08
2	0	0	1	0	254506	-0.275103	-0.274118	-0.000107645	1	-1.64615e-07	44	2.6496	2.95075e-08
2	0	0	1	0	254507	-0.282101	-0.281094	-0.000129123	1	-2.44937e-07	43	3.3494	3.62956e-08
2	0	0	1	0	254507	-0.285101	-0.284085	-0.000138172	1	-2.8501e-07	43	3.6494	3.92526e-08
2	0	0	1	0	254507	-0.2881	-0.287106	-0.000147223	1	-3.27946e-07	43	3.9494	4.22687e-08
2	0	0	1	0	254508	-0.2911	-0.290097	-0.000156328	1	-3.73325e-07	43	4.2494	4.53503e-08
2	0	0	1	0	254508	-0.294099	-0.29307	-0.000165419	1	-4.21439e-07	43	4.5492	4.84793e-08
2	0	0	1	0	254508	-0.297074	-0.296068	-0.000173658	1	-4.71968e-07	43	4.8467	5.14146e-08
2	0	0	1	0	254509	-0.295049	-0.295725	-0.000151648	1	-5.14554e-07	43	5.0998	4.48462e-08
2	0	0	1	0	254509	-0.29205	-0.292741	-0.000126196	1	-5.55696e-07	43	5.3997	3.69428e-08
2	0	0	1	0	254509	-0.28905	-0.289761	-0.000109855	1	-5.90801e-07	43	5.6996	3.18316e-08
2	0	0	1	0	254509	-0.286051	-0.286748	-9.87499e-05	1	-6.22057e-07	43	5.9996	2.83163e-08
2	0	0	1	0	254510	-0.283051	-0.283774	-8.65417e-05	1	-6.49831e-07	43	6.2996	2.45583e-08
2	0	0	1	0	254510	-0.280052	-0.280772	-7.66745e-05	1	-6.7427e-07	43	6.5994	2.15281e-08
2	0	0	1	0	254510	-0.277052	-0.277772	-6.70617e-05	1	-6.95723e-07	43	6.8994	1.86279e-08
2	0	0	1	0	254511	-0.274053	-0.274769	-5.69125e-05	1	-7.14303e-07	43	7.1994	1.56378e-08
2	0	0	1	0	254511	-0.271053	-0.271767	-4.72585e-05	1	-7.29874e-07	43	7.4994	1.28433e-08
2	0	0	1	0	254512	-0.264054	-0.26478	-2.39027e-05	1	-7.57856e-07	44	8.1992	6.32895e-09
2	0	0	1	0	254512	-0.261055	-0.261796	-1.63772e-05	1	-7.63965e-07	44	8.4992	4.28748e-09
2	0	0	1	0	254512	-0.258056	-0.258757	-5.53046e-06	1	-7.67256e-07	44	8.799	1.43104e-09
2	1	0	1	0	254513	-0.247057	-0.247771	2.78219e-05	1	-7.60843e-07	44	0.5499	-6.89347e-09
2	1	0	1	0	254514	-0.244058	-0.24477	3.77361e-05	1	-7.50963e-07	44	0.8498	-9.23664e-09
2	1	0	1	0	254514	-0.241059	-0.241752	4.67525e-05	1	-7.38268e-07	44	1.1498	-1.13025e-08
2	1	0	1	0	254514	-0.238059	-0.238787	5.61489e-05	1	-7.2275e-07	44	1.4498	-1.34076e-08
2	1	0	1	0	254515	-0.23506	-0.235787	6.52916e-05	1	-7.04577e-07	44	1.7496	-1.53949e-08
2	1	0	1	0	254515	-0.23206	-0.232788	7.52156e-05	1	-6.83528e-07	44	2.0496	-1.75093e-08
2	1	0	1	0	254515	-0.229061	-0.229797	8.45609e-05	1	-6.5949e-07	44	2.3496	-1.94318e-08
2	1	0	1	0	254515	-0.226061	-0.226815	9.41823e-05	1	-6.32739e-07	44	2.6496	-2.13619e-08
2	1	0	1	0	254516	-0.223062	-0.2238	0.000103299	1	-6.02969e-07	44	2.9494	-2.31184e-08
2	1	0	1	0	254516	-0.216063	-0.216777	0.000127067	1	-5.25309e-07	43	3.6494	-2.75453e-08
2	1	0	1	0	254517	-0.213064	-0.213818	0.00013501	1	-4.85818e-07	43	3.9492	-2.88675e-08
2	1	0	1	0	254517	-0.210064	-0.210807	0.000145847	1	-4.43657e-07	43	4.2492	-3.07456e-08
2	1	0	1	0	254517	-0.207065	-0.207821	0.000155842	1	-3.98437e-07	43	4.5492	-3.23871e-08
2	1	0	1	0	254518	-0.204065	-0.204824	0.000165284	1	-3.50305e-07	43	4.8492	-3.38541e-08
2	1	0	1	0	254518	-0.201066	-0.201818	0.000175802	1	-2.9923e-07	43	5.149	-3.54799e-08
2	1	0	1	0	254518	-0.198066	-0.198805	0.000185833	1	-2.44983e-07	43	5.449	-3.69444e-08
2	1	0	1	0	254519	-0.195067	-0.195846	0.000197774	1	-1.87443e-07	43	5.749	-3.87331e-08
2	1	0	1	0	254519	-0.192067	-0.192842	0.000205292	1	-1.26823e-07	43	6.049	-3.95888e-08
2	1	0	1	0	254519	-0.189068	-0.189829	0.000216955	1	-6.34343e-08	43	6.3488	-4.11844e-08
2	1	0	1	0	254519	-0.186068	-0.186797	0.000230302	1	3.89927e-09	43	6.6488	-4.30198e-08
2	1	0	1	0	254520	-0.183069	-0.183839	0.000239431	1	7.41552e-08	43	6.9488	-4.40168e-08
2	1	0	1	0	254520	-0.180069	-0.180826	0.000248805	1	1.47495e-07	43	7.2488	-4.49903e-08
2	1	0	1	0	254520	-0.17707	-0.177818	0.000260661	1	2.23779e-07	43	7.5486	-4.63502e-08
2	1	0	1	0	254521	-0.174071	-0.174833	0.000269219	1	3.03335e-07	43	7.8486	-4.70683e-08
2	1	0	1	0	254521	-0.171071	-0.171834	0.000280302	1	3.8572e-07	43	8.1486	-4.81653e-08
2	1	0	1	0	254521	-0.168072	-0.16884	0.000290974	1	4.71258e-07	43	8.4484	-4.91279e-08
2	1	0	1	0	254522	-0.165072	-0.165841	0.000300393	1	5.60081e-07	43	8.7484	-4.98176e-08
2	1	0	1	0	254522	-0.162073	-0.16286	0.000313961	1	6.5208e-07	43	9.0484	-5.11317e-08
2	1	0	1	0	254522	-0.159073	-0.159853	0.000322974	1	7.47341e-07	43	9.3484	-5.16283e-08
2	1	0	1	0	254522	-0.156074	-0.156853	0.000333594	1	8.45954e-07	43	9.6482	-5.23253e-08
2	1	0	1	0	254523	-0.153074	-0.153876	0.000345863	1	9.47859e-07	43	9.9482	-5.32201e-08
2	1	0	1	0	254523	-0.150075	-0.150839	0.000354239	1	1.05299e-06	43	10.2482	-5.34332e-08
2	1	0	1	0	254523	-0.147075	-0.14786	0.00036654	1	1.16145e-06	43	10.5482	-5.41965e-08
2	1	0	1	0	254524	-0.144076	-0.144841	0.000379554	1	1.27285e-06	43	10.848	-5.49749e-08
2	1	0	1	0	254524	-0.141076	-0.141841	0.000388786	1	1.38809e-06	43	11.148	-5.51459e-08
2	1	0	1	0	254524	-0.138077	-0.138865	0.000398232	1	1.50628e-06	43	11.448	-5.53007e-08
2	1	0	1	0	254525	-0.135078	-0.135842	0.000408709	1	1.62655e-06	43	11.7479	-5.55198e-08
2	1	0	1	0	254525	-0.132078	-0.132874	0.000421396	1	1.7513e-06	43	12.0478	-5.59924e-08
2	1	0	1	0	254525	-0.129079	-0.129863	0.000432883	1	1.87919e-06	43	12.3478	-5.62157e-08
2	1	0	1	0	254525	-0.126079	-0.126888	0.00044419	1	2.01076e-06	43	12.6478	-5.63623e-08
2	1	0	1	0	254526	-0.12308	-0.123908	0.00044974	1	2.14541e-06	43	12.9476	-5.57264e-08
2	1	0	1	0	254526	-0.12008	-0.12089	0.000469897	1	2.28287e-06	43	13.2476	-5.68061e-08
2	1	0	1	0	254526	-0.117081	-0.117911	0.000478765	1	2.42513e-06	43	13.5476	-5.64518e-08
2	1	0	1	0	254527	-0.114081	-0.114906	0.000492465	1	2.57094e-06	43	13.8476	-5.6587e-08
2	1	0	1	0	254527	-0.111082	-0.111895	0.000500413	1	2.71922e-06	43	14.1474	-5.59936e-08
2	1	0	1	0	254527	-0.108082	-0.108913	0.000521646	1	2.87243e-06	43	14.4474	-5.68143e-08
2	1	0	1	0	254528	-0.105083	-0.105909	0.000527399	1	3.0296e-06	43	14.7474	-5.5856e-08
2	1	0	1	0	254528	-0.102083	-0.102892	0.00053844	1	3.18947e-06	43	15.0474	-5.5401e-08
2	1	0	1	0	254528	-0.0990839	-0.0998989	0.000548766	1	3.35191e-06	43	15.3472	-5.48211e-08
2	1	0	1	0	254528	-0.0960844	-0.0969069	0.000564583	1	3.51954e-06	43	15.6472	-5.4712e-08
2	1	0	1	0	254529	-0.0930849	-0.0938961	0.000580174	1	3.69055e-06	43	15.9472	-5.4476e-08
2	1	0	1	0	254529	-0.0900861	-0.090898	0.000589009	1	3.86624e-06	43	16.2471	-5.35398e-08
2	1	0	1	0	254529	-0.087086	-0.0879285	0.000602654	1	4.0449e-06	43	16.547	-5.29904e-08
2	1	0	1	0	254530	-0.0840865	-0.0849269	0.000618822	1	4.22794e-06	43	16.847	-5.25547e-08
2	1	0	1	0	254530	-0.0810871	-0.0819148	0.000627686	1	4.41568e-06	43	17.147	-5.14167e-08
2	1	0	1	0	254530	-0.0780876	-0.0789318	0.00063987	1	4.6056e-06	43	17.4468	-5.0506e-08
2	1	0	1	0	254531	-0.0750881	-0.075892	0.00065483	1	4.80036e-06	43	17.7468	-4.96964e-08
2	1	0	1	0	254531	-0.0720887	-0.0728914	0.000666732	1	4.99887e-06	43	18.0468	-4.8599e-08
2	1	0	1	0	254531	-0.0690892	-0.0699251	0.000683363	1	5.20203e-06	43	18.3468	-4.77842e-08
2	1	0	1	0	254531	-0.0660897	-0.0669142	0.000697019	1	5.40876e-06	43	18.6466	-4.66405e-08
2	1	0	1	0	254532	-0.0630903	-0.0638953	0.000714387	1	5.62069e-06	43	18.9466	-4.5646e-08
2	1	0	1	0	254532	-0.0600908	-0.0609086	0.000724954	1	5.83653e-06	43	19.2466	-4.4156e-08
2	1	0	1	0	254532	-0.0570913	-0.057926	0.000738694	1	6.05616e-06	43	19.5466	-4.27896e-08
2	1	0	1	0	254533	-0.0540919	-0.0549164	0.000752325	1	6.27996e-06	43	19.8464	-4.1315e-08
2	1	0	1	0	254533	-0.0510924	-0.0519408	0.000770037	1	6.50814e-06	43	20.1464	-3.99963e-08
2	1	0	1	0	254533	-0.0480929	-0.0489327	0.00077906	1	6.73959e-06	43	20.4464	-3.81215e-08
2	1	0	1	0	254534	-0.0450939	-0.0459454	0.000793844	1	6.97566e-06	43	20.7463	-3.64734e-08
2	1	0	1	0	254534	-0.042094	-0.0429396	0.000807913	1	7.21564e-06	43	21.0462	-3.46915e-08
2	1	0	1	0	254534	-0.0390945	-0.0399396	0.000823908	1	7.45986e-06	43	21.3462	-3.29065e-08
2	1	0	1	0	254534	-0.0360951	-0.0369274	0.000840799	1	7.70941e-06	43	21.6462	-3.10486e-08
2	1	0	1	0	254535	-0.0330956	-0.0339176	0.000861215	1	7.96601e-06	43	21.946	-2.92104e-08
2	1	0	1	0	254535	-0.0300961	-0.0309452	0.000874569	1	8.22608e-06	43	22.246	-2.70637e-08
2	1	0	1	0	254535	-0.0270967	-0.02795	0.000885916	1	8.49054e-06	43	22.546	-2.47614e-08
2	1	0	1	0	254536	-0.0240972	-0.0249419	0.000894232	1	8.75904e-06	43	22.846	-2.23039e-08
2	1	0	1	0	254536	-0.0210977	-0.0219466	0.000909128	1	9.02894e-06	43	23.1458	-1.99522e-08
2	1	0	1	0	254536	-0.0180983	-0.0189293	0.000930089	1	9.30492e-06	43	23.4458	-1.7606e-08
2	1	0	1	0	254537	-0.0150988	-0.0159541	0.0009476	1	9.58616e-06	43	23.7458	-1.51181e-08
2	1	0	1	0	254537	-0.0120993	-0.0129477	0.000962224	1	9.87224e-06	43	24.0458	-1.24586e-08
2	1	0	1	0	254537	-0.00909988	-0.00995533	0.000976207	1	1.01619e-05	43	24.3456	-9.71846e-09
2	1	0	1	0	254537	-0.00610041	-0.00697247	0.000993284	1	1.04563e-05	43	24.6456	-6.92564e-09
2	1	0	1	0	254538	-0.00310094	-0.00396586	0.00100854	1	1.07561e-05	43	24.9456	-3.99972e-09
2	1	0	1	0	254538	-0.000176967	-0.00105534	0.00101774	1	1.10519e-05	43	25.238	-1.07407e-09
2	1	0	1	1	254538	-0.00225109	-0.00140346	0.000988236	1	1.12968e-05	43	25.4808	-1.38695e-09
2	1	0	1	1	254539	-0.00525056	-0.00436722	0.000955669	1	1.15884e-05	43	25.7808	-4.17362e-09
2	1	0	1	1	254539	-0.00825003	-0.00738444	0.000934125	1	1.18715e-05	43	26.0808	-6.89799e-09
2	1	0	1	1	254539	-0.0112493	-0.010366	0.000913756	1	1.21483e-05	43	26.3807	-9.47199e-09
2	1	0	1	1	254540	-0.014249	-0.0133542	0.000893504	1	1.24188e-05	43	26.6806	-1.1932e-08
2	1	0	1	1	254540	-0.0172484	-0.0163428	0.000872327	1	1.2684e-05	43	26.9806	-1.42562e-08
2	1	0	1	1	254540	-0.0202479	-0.0193449	0.000849447	1	1.29413e-05	43	27.2806	-1.64325e-08
2	1	0	1	1	254540	-0.0232474	-0.0223271	0.000837719	1	1.31943e-05	43	27.5804	-1.87039e-08
2	1	0	1	1	254541	-0.0262468	-0.0253501	0.000824	1	1.34434e-05	43	27.8804	-2.08885e-08
2	1	0	1	1	254541	-0.0292463	-0.0283344	0.000807722	1	1.36882e-05	43	28.1804	-2.28863e-08
2	1	0	1	1	254541	-0.0322458	-0.0313298	0.000779033	1	1.39267e-05	43	28.4804	-2.44069e-08
2	1	0	1	1	254542	-0.0352452	-0.0343298	0.000770826	1	1.41589e-05	43	28.7802	-2.64623e-08
2	1	0	1	1	254542	-0.0382447	-0.0373267	0.000753478	1	1.43875e-05	43	29.0802	-2.81248e-08
2	1	0	1	1	254542	-0.0412441	-0.0403254	0.00073847	1	1.4611e-05	43	29.3802	-2.97791e-08
2	1	0	1	1	254543	-0.0442436	-0.0433236	0.000716179	1	1.48289e-05	43	29.6802	-3.10274e-08
2	1	0	1	1	254543	-0.0472431	-0.0463259	0.000703685	1	1.5042e-05	43	29.98	-3.25988e-08
2	1	0	1	1	254543	-0.0502426	-0.0493156	0.000688672	1	1.5251e-05	43	30.28	-3.39622e-08
2	1	0	1	1	254543	-0.053242	-0.0523247	0.000672781	1	1.54556e-05	43	30.58	-3.52031e-08
2	1	0	1	1	254544	-0.0562417	-0.0553018	0.000658491	1	1.56553e-05	43	30.8799	-3.64157e-08
2	1	0	1	1	254544	-0.0592409	-0.058314	0.000640235	1	1.58506e-05	43	31.1798	-3.73347e-08
2	1	0	1	1	254544	-0.0622404	-0.0612985	0.000628829	1	1.60412e-05	43	31.4798	-3.85463e-08
2	1	0	1	1	254545	-0.0652399	-0.0643132	0.000614684	1	1.62277e-05	43	31.7798	-3.95323e-08
2	1	0	1	1	254545	-0.0682393	-0.0673069	0.000599825	1	1.64095e-05	43	32.0796	-4.03723e-08
2	1	0	1	1	254545	-0.0712388	-0.0702885	0.000584312	1	1.65869e-05	43	32.3796	-4.10704e-08
2	1	0	1	1	254546	-0.0742383	-0.0733025	0.000573664	1	1.67607e-05	43	32.6796	-4.2051e-08
2	1	0	1	1	254546	-0.0772377	-0.0762836	0.000558927	1	1.693e-05	43	32.9796	-4.2637e-08
2	1	0	1	1	254546	-0.0802372	-0.0792792	0.000546676	1	1.70958e-05	43	33.2794	-4.33401e-08
2	1	0	1	1	254546	-0.0832367	-0.0823001	0.000533434	1	1.72575e-05	43	33.5794	-4.39017e-08
2	1	0	1	1	254547	-0.0862361	-0.0852808	0.000519731	1	1.74156e-05	43	33.8794	-4.43231e-08
2	1	0	1	1	254547	-0.0892356	-0.0882694	0.000507238	1	1.75697e-05	43	34.1794	-4.47736e-08
2	1	0	1	1	254547	-0.0922351	-0.0912573	0.000494594	1	1.77201e-05	43	34.4792	-4.51353e-08
2	1	0	1	1	254548	-0.0952345	-0.0942745	0.000484238	1	1.78668e-05	43	34.7792	-4.56513e-08
2	1	0	1	1	254548	-0.098234	-0.0972497	0.000471736	1	1.80097e-05	43	35.0792	-4.58762e-08
2	1	0	1	1	254548	-0.101234	-0.100271	0.000457974	1	1.81491e-05	43	35.3791	-4.59216e-08
2	1	0	1	1	254549	-0.104233	-0.103275	0.00044321	1	1.82846e-05	43	35.679	-4.57724e-08
2	1	0	1	1	254549	-0.107232	-0.10628	0.000433112	1	1.84164e-05	43	35.979	-4.60311e-08
2	1	0	1	1	254549	-0.110232	-0.109302	0.000421969	1	1.85444e-05	43	36.279	-4.6122e-08
2	1	0	1	1	254549	-0.113231	-0.112287	0.000410316	1	1.86693e-05	43	36.5788	-4.60732e-08
2	1	0	1	1	254550	-0.116231	-0.115262	0.000397327	1	1.87905e-05	43	36.8788	-4.57965e-08
2	1	0	1	1	254550	-0.11923	-0.118284	0.000388044	1	1.89083e-05	43	37.1788	-4.58993e-08
2	1	0	1	1	254550	-0.12223	-0.121271	0.000374564	1	1.90227e-05	43	37.4788	-4.54236e-08
2	1	0	1	1	254551	-0.125229	-0.124298	0.000363499	1	1.91332e-05	43	37.7786	-4.51823e-08
2	1	0	1	1	254551	-0.128229	-0.127258	0.000354884	1	1.92405e-05	43	38.0786	-4.51616e-08
2	1	0	1	1	254551	-0.131228	-0.130244	0.000342605	1	1.93454e-05	43	38.3786	-4.46222e-08
2	1	0	1	1	254552	-0.134228	-0.133246	0.000331714	1	1.94463e-05	43	38.6786	-4.41996e-08
2	1	0	1	1	254552	-0.137227	-0.136258	0.000321512	1	1.95441e-05	43	38.9784	-4.38087e-08
2	1	0	1	1	254552	-0.140227	-0.139238	0.000308879	1	1.96386e-05	43	39.2784	-4.30077e-08
2	1	0	1	1	254552	-0.143226	-0.142246	0.000299624	1	1.97298e-05	43	39.5784	-4.26203e-08
2	1	0	1	1	254553	-0.146225	-0.14524	0.000287056	1	1.98177e-05	43	39.8782	-4.1692e-08
2	1	0	1	1	254553	-0.149225	-0.148258	0.000276876	1	1.99025e-05	43	40.1782	-4.10492e-08
2	1	0	1	1	254553	-0.152224	-0.151248	0.000265264	1	1.99839e-05	43	40.4782	-4.01205e-08
2	1	0	1	1	254554	-0.155224	-0.154247	0.000254589	1	2.00619e-05	43	40.7782	-3.92695e-08
2	1	0	1	1	254554	-0.158223	-0.157257	0.000245258	1	2.01365e-05	43	41.078	-3.85686e-08
2	1	0	1	1	254554	-0.161223	-0.160248	0.00023457	1	2.02087e-05	43	41.378	-3.75894e-08
2	1	0	1	1	254555	-0.164222	-0.163265	0.000224259	1	2.02775e-05	43	41.678	-3.66136e-08
2	1	0	1	1	254555	-0.167222	-0.166247	0.000215949	1	2.03434e-05	43	41.978	-3.59009e-08
2	1	0	1	1	254555	-0.170221	-0.169235	0.000204348	1	2.04062e-05	43	42.2778	-3.45829e-08
2	1	0	1	1	254555	-0.173221	-0.172238	0.000194845	1	2.0466e-05	43	42.5778	-3.35597e-08
2	1	0	1	1	254556	-0.17622	-0.17524	0.000186034	1	2.05231e-05	43	42.8778	-3.26006e-08
2	1	0	1	1	254556	-0.17922	-0.17824	0.000176389	1	2.05776e-05	43	43.1778	-3.14395e-08
2	1	0	1	1	254556	-0.182219	-0.181253	0.000166394	1	2.06289e-05	43	43.4776	-3.01595e-08
2	1	0	1	1	254557	-0.185219	-0.184257	0.000157214	1	2.06774e-05	43	43.7776	-2.89676e-08
2	1	0	1	1	254557	-0.188218	-0.187245	0.000148604	1	2.07233e-05	43	44.0776	-2.78253e-08
2	1	0	1	1	254557	-0.191217	-0.190249	0.000139002	1	2.07662e-05	43	44.3774	-2.6445e-08
2	1	0	1	1	254558	-0.194217	-0.193239	0.000128627	1	2.0806e-05	43	44.6774	-2.48557e-08
2	1	0	1	1	254558	-0.197216	-0.196239	0.000119092	1	2.08433e-05	43	44.9774	-2.33706e-08
2	1	0	1	1	254558	-0.200216	-0.199246	0.000110747	1	2.08777e-05	43	45.2774	-2.20659e-08
2	1	0	1	1	254558	-0.203215	-0.202237	0.000101155	1	2.09095e-05	43	45.5772	-2.04573e-08
2	1	0	1	1	254559	-0.206215	-0.205231	9.18361e-05	1	2.09386e-05	43	45.8772	-1.88476e-08
2	1	0	1	1	254559	-0.209214	-0.208217	8.38151e-05	1	2.09648e-05	43	46.1772	-1.74517e-08
2	1	0	1	1	254559	-0.212214	-0.211239	7.421e-05	1	2.09885e-05	43	46.4772	-1.56761e-08
2	1	0	1	1	254560	-0.215213	-0.214227	6.56103e-05	1	2.10094e-05	43	46.777	-1.40555e-08
2	1	0	1	1	254560	-0.218213	-0.217215	5.59096e-05	1	2.10276e-05	43	47.077	-1.21444e-08
2	1	0	1	1	254560	-0.221212	-0.220225	4.75326e-05	1	2.1043e-05	43	47.377	-1.04679e-08
2	1	0	1	1	254561	-0.228211	-0.227223	2.66825e-05	1	2.10713e-05	44	48.0768	-6.06289e-09
2	1	0	1	1	254561	-0.23121	-0.230214	1.87814e-05	1	2.10781e-05	44	48.3768	-4.32373e-09
2	1	0	1	1	254562	-0.23421	-0.233219	8.60073e-06	1	2.10822e-05	44	48.6768	-2.00586e-09
2	0	0	1	1	254562	-0.243208	-0.242196	-1.65868e-05	1	2.10816e-05	45	0.000000000000000E+000	4.01725e-09
2	0	0	1	1	254563	-0.247657	-0.246659	-2.89591e-05	2	2.10733e-05	44	0.4448	7.14304e-09
2	0	0	1	1	254563	-0.250657	-0.249648	-3.77688e-05	2	2.10633e-05	44	0.7448	9.4289e-09
2	0	0	1	1	254563	-0.253656	-0.252667	-4.57646e-05	2	2.10508e-05	44	1.0448	1.15632e-08
2	0	0	1	1	254564	-0.256656	-0.255654	-5.49795e-05	2	2.10357e-05	44	1.3448	1.40557e-08
2	0	0	1	1	254564	-0.259655	-0.258644	-6.28972e-05	2	2.1018e-05	44	1.6446	1.6268e-08
2	0	0	1	1	254564	-0.262655	-0.261654	-7.24449e-05	2	2.09977e-05	44	1.9446	1.89555e-08
2	0	0	1	1	254565	-0.265654	-0.264668	-8.02482e-05	2	2.09748e-05	44	2.2446	2.12392e-08
2	0	0	1	1	254565	-0.268654	-0.267636	-8.92041e-05	2	2.09494e-05	44	2.5446	2.38742e-08
2	0	0	1	1	254565	-0.271653	-0.270643	-9.74918e-05	2	2.09214e-05	44	2.8444	2.63855e-08
2	0	0	1	1	254566	-0.274653	-0.273642	-0.000107033	2	2.08908e-05	44	3.1444	2.92888e-08
2	0	0	1	1	254566	-0.281651	-0.280635	-0.000126023	2	2.08115e-05	43	3.8442	3.53663e-08
2	0	0	1	1	254567	-0.284651	-0.28363	-0.000134594	2	2.07725e-05	43	4.1442	3.81749e-08
2	0	0	1	1	254567	-0.28765	-0.286643	-0.000142739	2	2.07309e-05	43	4.4442	4.09151e-08
2	0	0	1	1	254567	-0.29065	-0.289629	-0.000151532	2	2.06868e-05	43	4.7442	4.3888e-08
2	0	0	1	1	254567	-0.293649	-0.292645	-0.000159951	2	2.06402e-05	43	5.044	4.68089e-08
2	0	0	1	1	254568	-0.296649	-0.295647	-0.000167845	2	2.0591e-05	43	5.344	4.96227e-08
2	0	0	1	1	254568	-0.295549	-0.296263	-0.000152638	2	2.05503e-05	43	5.5896	4.5221e-08
2	0	0	1	1	254568	-0.292549	-0.29326	-0.000121329	2	2.051e-05	43	5.8896	3.55809e-08
2	0	0	1	1	254569	-0.28955	-0.290231	-0.000106297	2	2.04761e-05	43	6.1894	3.08508e-08
2	0	0	1	1	254569	-0.28655	-0.287261	-9.31843e-05	2	2.04464e-05	43	6.4894	2.67682e-08
2	0	0	1	1	254569	-0.283551	-0.284249	-8.22863e-05	2	2.042e-05	43	6.7894	2.33898e-08
2	0	0	1	1	254569	-0.280551	-0.281251	-7.26812e-05	2	2.03968e-05	43	7.0893	2.04417e-08
2	0	0	1	1	254570	-0.277552	-0.278263	-6.27117e-05	2	2.03764e-05	43	7.3892	1.74504e-08
2	0	0	1	1	254570	-0.274553	-0.275273	-5.55735e-05	2	2.03587e-05	43	7.6892	1.52979e-08
2	0	0	1	1	254570	-0.271553	-0.272279	-4.47255e-05	2	2.03438e-05	43	7.9892	1.21778e-08
2	0	0	1	1	254571	-0.264554	-0.265285	-2.37666e-05	2	2.03172e-05	44	8.689	6.30493e-09
2	0	0	1	1	254571	-0.261555	-0.262295	-1.50555e-05	2	2.03115e-05	44	8.989	3.94899e-09
2	0	0	1	1	254572	-0.258555	-0.259284	-6.13509e-06	2	2.03084e-05	44	9.289	1.59073e-09
2	1	0	1	1	254573	-0.247557	-0.24829	2.5845e-05	2	2.03155e-05	44	0.35	-6.41707e-09
2	1	0	1	1	254573	-0.244558	-0.245282	3.49311e-05	2	2.03248e-05	44	0.6498	-8.56797e-09
2	1	0	1	1	254573	-0.241558	-0.242281	4.38981e-05	2	2.03366e-05	44	0.9498	-1.06357e-08
2	1	0	1	1	254574	-0.238559	-0.23929	5.23472e-05	2	2.0351e-05	44	1.2498	-1.25262e-08
2	1	0	1	1	254574	-0.23556	-0.236307	6.19148e-05	2	2.03681e-05	44	1.5496	-1.46309e-08
2	1	0	1	1	254574	-0.23256	-0.233314	6.95097e-05	2	2.03879e-05	44	1.8496	-1.62176e-08
2	1	0	1	1	254575	-0.229561	-0.2303	7.94355e-05	2	2.04102e-05	44	2.1496	-1.8294e-08
2	1	0	1	1	254575	-0.226561	-0.2273	8.9123e-05	2	2.04354e-05	44	2.4496	-2.02577e-08
2	1	0	1	1	254575	-0.223562	-0.224279	9.67119e-05	2	2.04632e-05	44	2.7494	-2.16905e-08
2	1	0	1	1	254575	-0.220562	-0.22129	0.000105845	2	2.04936e-05	44	3.0494	-2.34224e-08
2	1	0	1	1	254576	-0.213564	-0.214303	0.00012632	2	2.05726e-05	43	3.7493	-2.70707e-08
2	1	0	1	1	254576	-0.210564	-0.211331	0.00013556	2	2.06119e-05	43	4.0492	-2.8648e-08
2	1	0	1	1	254577	-0.207565	-0.208306	0.000144872	2	2.0654e-05	43	4.3492	-3.01776e-08
2	1	0	1	1	254577	-0.204565	-0.205324	0.000154826	2	2.06989e-05	43	4.6492	-3.17895e-08
2	1	0	1	1	254577	-0.201566	-0.202328	0.000162598	2	2.07466e-05	43	4.949	-3.28982e-08
2	1	0	1	1	254578	-0.198566	-0.199319	0.000172686	2	2.07969e-05	43	5.249	-3.44196e-08
2	1	0	1	1	254578	-0.195567	-0.196346	0.00018227	2	2.08501e-05	43	5.549	-3.57878e-08
2	1	0	1	1	254578	-0.192567	-0.19334	0.00019101	2	2.0906e-05	43	5.849	-3.693e-08
2	1	0	1	1	254579	-0.189568	-0.190342	0.000200976	2	2.09648e-05	43	6.1488	-3.82542e-08
2	1	0	1	1	254579	-0.186568	-0.187335	0.000209329	2	2.10263e-05	43	6.4488	-3.92146e-08
2	1	0	1	1	254579	-0.183569	-0.184358	0.000220145	2	2.10908e-05	43	6.7488	-4.05856e-08
2	1	0	1	1	254579	-0.180569	-0.181334	0.000228036	2	2.1158e-05	43	7.0488	-4.13506e-08
2	1	0	1	1	254580	-0.17757	-0.178323	0.000239758	2	2.12281e-05	43	7.3486	-4.27544e-08
2	1	0	1	1	254580	-0.17457	-0.175322	0.000248087	2	2.13011e-05	43	7.6486	-4.34951e-08
2	1	0	1	1	254580	-0.171571	-0.172336	0.000258294	2	2.13771e-05	43	7.9486	-4.45133e-08
2	1	0	1	1	254581	-0.168572	-0.169327	0.00026707	2	2.14558e-05	43	8.2485	-4.52222e-08
2	1	0	1	1	254581	-0.165572	-0.16632	0.000277266	2	2.15374e-05	43	8.5484	-4.6115e-08
2	1	0	1	1	254581	-0.162573	-0.163362	0.000287627	2	2.16224e-05	43	8.8484	-4.69872e-08
2	1	0	1	1	254582	-0.159573	-0.160361	0.000297355	2	2.17102e-05	43	9.1484	-4.76842e-08
2	1	0	1	1	254582	-0.156574	-0.157352	0.000308426	2	2.18011e-05	43	9.4482	-4.85315e-08
2	1	0	1	1	254582	-0.153574	-0.15436	0.000318145	2	2.18951e-05	43	9.7482	-4.9109e-08
2	1	0	1	1	254582	-0.150575	-0.151353	0.000327513	2	2.1992e-05	43	10.0482	-4.957e-08
2	1	0	1	1	254583	-0.147575	-0.148359	0.000339054	2	2.20919e-05	43	10.3482	-5.03017e-08
2	1	0	1	1	254583	-0.144576	-0.145365	0.00034833	2	2.21948e-05	43	10.648	-5.06349e-08
2	1	0	1	1	254583	-0.141576	-0.142357	0.000359646	2	2.23012e-05	43	10.948	-5.1198e-08
2	1	0	1	1	254584	-0.138577	-0.13937	0.000368539	2	2.24104e-05	43	11.248	-5.13632e-08
2	1	0	1	1	254584	-0.135577	-0.136368	0.00037914	2	2.25226e-05	43	11.548	-5.17025e-08
2	1	0	1	1	254584	-0.132578	-0.133357	0.000391398	2	2.26383e-05	43	11.8478	-5.21955e-08
2	1	0	1	1	254585	-0.129578	-0.130369	0.000400618	2	2.27572e-05	43	12.1478	-5.22283e-08
2	1	0	1	1	254585	-0.126579	-0.127381	0.000411849	2	2.28793e-05	43	12.4478	-5.24619e-08
2	1	0	1	1	254585	-0.123579	-0.124394	0.000423244	2	2.30045e-05	43	12.7477	-5.26491e-08
2	1	0	1	1	254585	-0.12058	-0.121406	0.000433164	2	2.31326e-05	43	13.0476	-5.25886e-08
2	1	0	1	1	254586	-0.117581	-0.118382	0.000444531	2	2.32644e-05	43	13.3476	-5.26246e-08
2	1	0	1	1	254586	-0.114581	-0.115382	0.000454475	2	2.33991e-05	43	13.6476	-5.24384e-08
2	1	0	1	1	254586	-0.111582	-0.112386	0.000466462	2	2.35369e-05	43	13.9474	-5.24238e-08
2	1	0	1	1	254587	-0.108582	-0.109397	0.000477316	2	2.36786e-05	43	14.2474	-5.22168e-08
2	1	0	1	1	254587	-0.105583	-0.106393	0.000488951	2	2.38235e-05	43	14.5474	-5.20208e-08
2	1	0	1	1	254587	-0.102583	-0.103381	0.000497808	2	2.39719e-05	43	14.8474	-5.14637e-08
2	1	0	1	1	254588	-0.0995838	-0.100403	0.000510339	2	2.41231e-05	43	15.1472	-5.12393e-08
2	1	0	1	1	254588	-0.0965843	-0.0974186	0.000525138	2	2.42783e-05	43	15.4472	-5.11582e-08
2	1	0	1	1	254588	-0.0935848	-0.0943834	0.000538126	2	2.44376e-05	43	15.7472	-5.07901e-08
2	1	0	1	1	254588	-0.0905854	-0.0913975	0.000552397	2	2.46012e-05	43	16.0472	-5.04877e-08
2	1	0	1	1	254589	-0.0875859	-0.0884077	0.000553354	2	2.47681e-05	43	16.347	-4.89208e-08
2	1	0	1	1	254589	-0.0845864	-0.085404	0.000565735	2	2.49352e-05	43	16.647	-4.83161e-08
2	1	0	1	1	254589	-0.081587	-0.0824034	0.000578899	2	2.51071e-05	43	16.947	-4.77032e-08
2	1	0	1	1	254590	-0.0785871	-0.079398	0.000592269	2	2.52828e-05	43	17.2469	-4.7025e-08
2	1	0	1	1	254590	-0.075588	-0.0764063	0.00060296	2	2.54622e-05	43	17.5468	-4.60699e-08
2	1	0	1	1	254590	-0.0725886	-0.0734067	0.000615547	2	2.56444e-05	43	17.8468	-4.51852e-08
2	1	0	1	1	254591	-0.0695891	-0.0704198	0.000628328	2	2.58307e-05	43	18.1468	-4.42467e-08
2	1	0	1	1	254591	-0.0665896	-0.0674246	0.00063909	2	2.60204e-05	43	18.4466	-4.30904e-08
2	1	0	1	1	254591	-0.0635902	-0.0644286	0.000656832	2	2.62148e-05	43	18.7466	-4.23187e-08
2	1	0	1	1	254591	-0.0605907	-0.0614248	0.000665232	2	2.64129e-05	43	19.0466	-4.08617e-08
2	1	0	1	1	254592	-0.0575912	-0.0584147	0.000681497	2	2.6615e-05	43	19.3466	-3.98095e-08
2	1	0	1	1	254592	-0.0545918	-0.055424	0.000690579	2	2.68204e-05	43	19.6464	-3.82747e-08
2	1	0	1	1	254592	-0.0515923	-0.0524223	0.000704969	2	2.703e-05	43	19.9464	-3.69561e-08
2	1	0	1	1	254593	-0.0485928	-0.0494331	0.000718688	2	2.72436e-05	43	20.2464	-3.5527e-08
2	1	0	1	1	254593	-0.0455934	-0.0464108	0.000731929	2	2.74614e-05	43	20.5464	-3.39694e-08
2	1	0	1	1	254593	-0.0425939	-0.0434275	0.000744508	2	2.76828e-05	43	20.8462	-3.23321e-08
2	1	0	1	1	254594	-0.0395944	-0.0404514	0.000761724	2	2.79089e-05	43	21.1462	-3.08128e-08
2	1	0	1	1	254594	-0.036595	-0.0374493	0.000772717	2	2.81393e-05	43	21.4462	-2.89377e-08
2	1	0	1	1	254594	-0.0335946	-0.0344216	0.000781703	2	2.83722e-05	43	21.7461	-2.69075e-08
2	1	0	1	1	254594	-0.030596	-0.0314556	0.00080144	2	2.86099e-05	43	22.046	-2.52098e-08
2	1	0	1	1	254595	-0.0275966	-0.0284299	0.000810457	2	2.88519e-05	43	22.346	-2.30412e-08
2	1	0	1	1	254595	-0.0245971	-0.0254383	0.000827384	2	2.90979e-05	43	22.646	-2.10473e-08
2	1	0	1	1	254595	-0.0215976	-0.0224527	0.000841402	2	2.93477e-05	43	22.9458	-1.88918e-08
2	1	0	1	1	254596	-0.0185982	-0.0194433	0.000857353	2	2.96023e-05	43	23.2458	-1.66698e-08
2	1	0	1	1	254596	-0.0155987	-0.0164412	0.000869142	2	2.98611e-05	43	23.5458	-1.42897e-08
2	1	0	1	1	254596	-0.0125993	-0.0134503	0.000884589	2	3.01241e-05	43	23.8458	-1.1898e-08
2	1	0	1	1	254597	-0.00959979	-0.0104477	0.000899184	2	3.0391e-05	43	24.1456	-9.3944e-09
2	1	0	1	1	254597	-0.00660032	-0.00746845	0.000911228	2	3.06627e-05	43	24.4456	-6.80546e-09
2	1	0	1	1	254597	-0.00360085	-0.00446459	0.000929956	2	3.0939e-05	43	24.7456	-4.15187e-09
2	1	0	1	1	254597	-0.000601388	-0.00146477	0.000942762	2	3.12202e-05	43	25.0456	-1.38093e-09
2	1	0	1	0	254598	-0.00175118	-0.000881396	0.000926731	2	3.14417e-05	43	25.2808	-8.16816e-10
2	1	0	1	0	254598	-0.00475065	-0.00389077	0.0008868	2	3.17125e-05	43	25.5808	-3.45033e-09
2	1	0	1	0	254598	-0.00775012	-0.00688486	0.000865132	2	3.19753e-05	43	25.8808	-5.95631e-09
2	1	0	1	0	254599	-0.0107496	-0.00987281	0.000841493	2	3.22307e-05	43	26.1808	-8.30789e-09
2	1	0	1	0	254599	-0.013749	-0.0128654	0.000825635	2	3.24809e-05	43	26.4806	-1.06221e-08
2	1	0	1	0	254599	-0.0167485	-0.0158523	0.000807961	2	3.27264e-05	43	26.7806	-1.2808e-08
2	1	0	1	0	254600	-0.019748	-0.0188657	0.000797345	2	3.29666e-05	43	27.0806	-1.50425e-08
2	1	0	1	0	254600	-0.0227474	-0.021856	0.000779686	2	3.32023e-05	43	27.3804	-1.70408e-08
2	1	0	1	0	254600	-0.0257469	-0.0248556	0.000762853	2	3.34333e-05	43	27.6804	-1.89612e-08
2	1	0	1	0	254600	-0.0287464	-0.0278408	0.000742138	2	3.36587e-05	43	27.9804	-2.06617e-08
2	1	0	1	0	254601	-0.0317458	-0.0308461	0.000724923	2	3.38791e-05	43	28.2804	-2.23611e-08
2	1	0	1	0	254601	-0.0347453	-0.0338281	0.000710896	2	3.40945e-05	43	28.5802	-2.40483e-08
2	1	0	1	0	254601	-0.0377448	-0.0368286	0.000694439	2	3.43053e-05	43	28.8802	-2.55752e-08
2	1	0	1	0	254602	-0.0407442	-0.0398119	0.000681008	2	3.45114e-05	43	29.1802	-2.71122e-08
2	1	0	1	0	254602	-0.0437437	-0.0428072	0.000668196	2	3.47137e-05	43	29.4802	-2.86036e-08
2	1	0	1	0	254602	-0.0467432	-0.045831	0.00065362	2	3.49119e-05	43	29.78	-2.99561e-08
2	1	0	1	0	254603	-0.0497426	-0.0488026	0.000636191	2	3.51055e-05	43	30.08	-3.10478e-08
2	1	0	1	0	254603	-0.0527421	-0.051794	0.000622579	2	3.52943e-05	43	30.38	-3.22459e-08
2	1	0	1	0	254603	-0.0557416	-0.0548175	0.000609983	2	3.54793e-05	43	30.68	-3.34377e-08
2	1	0	1	0	254603	-0.058741	-0.0577974	0.000596668	2	3.56597e-05	43	30.9798	-3.44859e-08
2	1	0	1	0	254604	-0.0617405	-0.0608231	0.00058027	2	3.58364e-05	43	31.2798	-3.52938e-08
2	1	0	1	0	254604	-0.06474	-0.0638117	0.000566438	2	3.60086e-05	43	31.5798	-3.61454e-08
2	1	0	1	0	254604	-0.0677394	-0.066809	0.000554682	2	3.61769e-05	43	31.8796	-3.70577e-08
2	1	0	1	0	254605	-0.0707389	-0.0698099	0.000542393	2	3.63413e-05	43	32.1796	-3.78644e-08
2	1	0	1	0	254605	-0.0737384	-0.0728074	0.000529617	2	3.65021e-05	43	32.4796	-3.856e-08
2	1	0	1	0	254605	-0.0767378	-0.075787	0.000515634	2	3.66585e-05	43	32.7796	-3.90784e-08
2	1	0	1	0	254606	-0.0797373	-0.0787979	0.000501395	2	3.68108e-05	43	33.0794	-3.95088e-08
2	1	0	1	0	254606	-0.0827368	-0.0817814	0.000490484	2	3.69595e-05	43	33.3794	-4.01125e-08
2	1	0	1	0	254606	-0.0857362	-0.0847984	0.000479843	2	3.71049e-05	43	33.6794	-4.06899e-08
2	1	0	1	0	254606	-0.0887357	-0.0877768	0.000467503	2	3.72467e-05	43	33.9794	-4.10359e-08
2	1	0	1	0	254607	-0.0917352	-0.09077	0.000454232	2	3.73849e-05	43	34.2792	-4.12307e-08
2	1	0	1	0	254607	-0.0947346	-0.0937781	0.000442634	2	3.75193e-05	43	34.5792	-4.15094e-08
2	1	0	1	0	254607	-0.0977341	-0.096765	0.000431691	2	3.76506e-05	43	34.8792	-4.17726e-08
2	1	0	1	0	254608	-0.100734	-0.0997833	0.000418483	2	3.77781e-05	43	35.1792	-4.17577e-08
2	1	0	1	0	254608	-0.103733	-0.10277	0.000407936	2	3.79017e-05	43	35.479	-4.19235e-08
2	1	0	1	0	254608	-0.106733	-0.105783	0.000397836	2	3.80227e-05	43	35.779	-4.20844e-08
2	1	0	1	0	254609	-0.109732	-0.108781	0.000386356	2	3.81405e-05	43	36.079	-4.20284e-08
2	1	0	1	0	254609	-0.112731	-0.111781	0.000376661	2	3.82549e-05	43	36.3788	-4.21035e-08
2	1	0	1	0	254609	-0.115731	-0.114784	0.000364026	2	3.83659e-05	43	36.6788	-4.17843e-08
2	1	0	1	0	254609	-0.11873	-0.117763	0.000353926	2	3.84737e-05	43	36.9788	-4.16792e-08
2	1	0	1	0	254610	-0.12173	-0.120779	0.000343886	2	3.85781e-05	43	37.2788	-4.15343e-08
2	1	0	1	0	254610	-0.124729	-0.123776	0.000332154	2	3.86794e-05	43	37.5786	-4.11125e-08
2	1	0	1	0	254610	-0.127729	-0.126736	0.000323179	2	3.87777e-05	43	37.8786	-4.09585e-08
2	1	0	1	0	254611	-0.130728	-0.129779	0.000312515	2	3.88729e-05	43	38.1786	-4.05578e-08
2	1	0	1	0	254611	-0.133728	-0.132761	0.00030043	2	3.89648e-05	43	38.4786	-3.98852e-08
2	1	0	1	0	254611	-0.136727	-0.135766	0.000291861	2	3.90533e-05	43	38.7784	-3.96249e-08
2	1	0	1	0	254612	-0.139727	-0.138765	0.000281408	2	3.91392e-05	43	39.0784	-3.90497e-08
2	1	0	1	0	254612	-0.142726	-0.141764	0.000269834	2	3.92222e-05	43	39.3784	-3.82529e-08
2	1	0	1	0	254612	-0.145726	-0.144776	0.000263443	2	3.93022e-05	43	39.6784	-3.81403e-08
2	1	0	1	0	254612	-0.148725	-0.147769	0.000250115	2	3.9379e-05	43	39.9782	-3.69593e-08
2	1	0	1	0	254613	-0.151724	-0.150769	0.000242692	2	3.94529e-05	43	40.2782	-3.65905e-08
2	1	0	1	0	254613	-0.154724	-0.153773	0.000231609	2	3.95238e-05	43	40.5782	-3.56153e-08
2	1	0	1	0	254613	-0.157723	-0.156771	0.000223437	2	3.95921e-05	43	40.878	-3.50283e-08
2	1	0	1	0	254614	-0.160723	-0.159752	0.000213554	2	3.96576e-05	43	41.178	-3.41157e-08
2	1	0	1	0	254614	-0.163722	-0.162759	0.000203587	2	3.97202e-05	43	41.478	-3.31356e-08
2	1	0	1	0	254614	-0.166722	-0.165735	0.000194828	2	3.97801e-05	43	41.778	-3.22898e-08
2	1	0	1	0	254615	-0.169721	-0.168717	0.000185971	2	3.98371e-05	43	42.0778	-3.13765e-08
2	1	0	1	0	254615	-0.172721	-0.171716	0.000176115	2	3.98915e-05	43	42.3778	-3.02417e-08
2	1	0	1	0	254615	-0.17572	-0.174723	0.000167649	2	3.9943e-05	43	42.6778	-2.92921e-08
2	1	0	1	0	254615	-0.17872	-0.177715	0.000158693	2	3.99919e-05	43	42.9778	-2.82022e-08
2	1	0	1	0	254616	-0.181719	-0.180704	0.000149417	2	4.0038e-05	43	43.2776	-2.70003e-08
2	1	0	1	0	254616	-0.184719	-0.183717	0.000140692	2	4.00816e-05	43	43.5776	-2.58475e-08
2	1	0	1	0	254616	-0.187718	-0.186734	0.000133048	2	4.01227e-05	43	43.8776	-2.48445e-08
2	1	0	1	0	254617	-0.190717	-0.189713	0.000123635	2	4.01611e-05	43	44.1775	-2.34551e-08
2	1	0	1	0	254617	-0.193717	-0.19273	0.000114855	2	4.01969e-05	43	44.4774	-2.21359e-08
2	1	0	1	0	254617	-0.196716	-0.195711	0.000106097	2	4.02299e-05	43	44.7774	-2.07644e-08
2	1	0	1	0	254618	-0.199716	-0.198721	9.69583e-05	2	4.02602e-05	43	45.0774	-1.92677e-08
2	1	0	1	0	254618	-0.202715	-0.201717	8.86193e-05	2	4.0288e-05	43	45.3772	-1.7876e-08
2	1	0	1	0	254618	-0.205715	-0.204716	8.0753e-05	2	4.03135e-05	43	45.6772	-1.65314e-08
2	1	0	1	0	254618	-0.208714	-0.207682	7.1314e-05	2	4.03363e-05	43	45.9772	-1.48106e-08
2	1	0	1	0	254619	-0.211714	-0.210709	6.25398e-05	2	4.03564e-05	43	46.2772	-1.31777e-08
2	1	0	1	0	254619	-0.214713	-0.213709	5.40071e-05	2	4.03739e-05	43	46.577	-1.15418e-08
2	1	0	1	0	254619	-0.217713	-0.216703	4.52093e-05	2	4.03888e-05	43	46.877	-9.79698e-09
2	1	0	1	0	254620	-0.224712	-0.223711	2.58526e-05	2	4.04162e-05	44	47.5769	-5.78351e-09
2	1	0	1	0	254620	-0.227711	-0.226702	1.8352e-05	2	4.04227e-05	44	47.8768	-4.16044e-09
2	1	0	1	0	254621	-0.23071	-0.22971	9.70336e-06	2	4.04269e-05	44	48.1768	-2.22896e-09
2	0	0	1	0	254621	-0.237709	-0.236682	-9.93254e-06	2	4.04288e-05	45	0.000000000000000E+000	2.35085e-09
2	0	0	1	0	254622	-0.244708	-0.24368	-2.97906e-05	2	4.04175e-05	44	0.7	7.25939e-09
2	0	0	1	0	254622	-0.247382	-0.246381	-3.68762e-05	3	4.04086e-05	44	0.9673	9.08561e-09
2	0	0	1	0	254623	-0.250157	-0.249126	-4.45578e-05	3	4.03973e-05	44	1.2448	1.11005e-08
2	0	0	1	0	254623	-0.253156	-0.252139	-5.27081e-05	3	4.03828e-05	44	1.5448	1.32898e-08
2	0	0	1	0	254623	-0.256156	-0.255137	-6.12098e-05	3	4.03657e-05	44	1.8448	1.56169e-08
2	0	0	1	0	254623	-0.259155	-0.258137	-6.91097e-05	3	4.03462e-05	44	2.1446	1.78398e-08
2	0	0	1	0	254624	-0.262155	-0.261135	-7.74798e-05	3	4.03243e-05	44	2.4446	2.02327e-08
2	0	0	1	0	254624	-0.265154	-0.264132	-8.49517e-05	3	4.02998e-05	44	2.7446	2.24384e-08
2	0	0	1	0	254624	-0.268154	-0.267108	-9.40905e-05	3	4.02729e-05	44	3.0446	2.51324e-08
2	0	0	1	0	254625	-0.271153	-0.270129	-0.000101863	3	4.02435e-05	44	3.3444	2.75162e-08
2	0	0	1	0	254625	-0.276152	-0.27511	-0.000115389	3	4.01897e-05	44	3.8444	3.17447e-08
2	0	0	1	0	254626	-0.281151	-0.280118	-0.00012963	3	4.01303e-05	43	4.3442	3.63116e-08
2	0	0	1	0	254626	-0.284151	-0.283101	-0.000138031	3	4.00902e-05	43	4.6442	3.90766e-08
2	0	0	1	0	254626	-0.28715	-0.286094	-0.000145314	3	4.00476e-05	43	4.9442	4.15735e-08
2	0	0	1	0	254627	-0.29015	-0.289077	-0.000152845	3	4.00028e-05	43	5.2442	4.41839e-08
2	0	0	1	0	254627	-0.293149	-0.29208	-0.000158745	3	3.99563e-05	43	5.544	4.63663e-08
2	0	0	1	0	254627	-0.296149	-0.295096	-0.000168245	3	3.9907e-05	43	5.844	4.96484e-08
2	0	0	1	0	254627	-0.296049	-0.296671	-0.000164449	3	3.98653e-05	43	6.0896	4.87874e-08
2	0	0	1	0	254628	-0.293049	-0.293682	-0.000127648	3	3.98225e-05	43	6.3896	3.74879e-08
2	0	0	1	0	254628	-0.29005	-0.290683	-0.000109948	3	3.97873e-05	43	6.6894	3.19601e-08
2	0	0	1	0	254628	-0.28705	-0.287719	-9.74513e-05	3	3.97563e-05	43	6.9894	2.80386e-08
2	0	0	1	0	254629	-0.284051	-0.284733	-8.74351e-05	3	3.97286e-05	43	7.2894	2.48956e-08
2	0	0	1	0	254629	-0.281051	-0.28172	-7.75282e-05	3	3.9704e-05	43	7.5894	2.18413e-08
2	0	0	1	0	254629	-0.278052	-0.278743	-6.80952e-05	3	3.96821e-05	43	7.8892	1.8981e-08
2	0	0	1	0	254630	-0.275053	-0.275747	-5.90012e-05	3	3.9663e-05	43	8.1892	1.62694e-08
2	0	0	1	0	254630	-0.272053	-0.272735	-4.99731e-05	3	3.96466e-05	43	8.4892	1.36294e-08
2	0	0	1	0	254631	-0.265054	-0.265759	-3.04859e-05	3	3.96165e-05	44	9.189	8.1019e-09
2	0	0	1	0	254631	-0.262055	-0.262774	-2.16287e-05	3	3.96087e-05	44	9.489	5.68346e-09
2	0	0	1	0	254631	-0.259055	-0.259765	-1.33519e-05	3	3.96036e-05	44	9.789	3.46835e-09
2	0	0	1	0	254631	-0.256056	-0.256733	-4.33624e-06	3	3.96009e-05	44	10.0888	1.11326e-09
2	1	0	1	0	254633	-0.245058	-0.245769	2.67264e-05	3	3.96083e-05	44	0.3499	-6.56851e-09
2	1	0	1	0	254633	-0.242058	-0.242746	3.46013e-05	3	3.96175e-05	44	0.6499	-8.39932e-09
2	1	0	1	0	254633	-0.239059	-0.239778	4.29005e-05	3	3.96291e-05	44	0.9499	-1.02866e-08
2	1	0	1	0	254633	-0.23606	-0.23677	5.21599e-05	3	3.96433e-05	44	1.2498	-1.23499e-08
2	1	0	1	0	254634	-0.23306	-0.233774	6.04428e-05	3	3.96603e-05	44	1.5497	-1.41299e-08
2	1	0	1	0	254634	-0.230061	-0.230781	6.79041e-05	3	3.96795e-05	44	1.8497	-1.5671e-08
2	1	0	1	0	254634	-0.227061	-0.227778	7.72265e-05	3	3.97013e-05	44	2.1497	-1.75905e-08
2	1	0	1	0	254635	-0.224062	-0.224813	8.5813e-05	3	3.97257e-05	44	2.4495	-1.92919e-08
2	1	0	1	0	254635	-0.221062	-0.221775	9.50472e-05	3	3.97529e-05	44	2.7495	-2.10791e-08
2	1	0	1	0	254635	-0.218063	-0.218754	0.000102084	3	3.97824e-05	44	3.0495	-2.23313e-08
2	1	0	1	0	254636	-0.211064	-0.211792	0.000123891	3	3.98589e-05	43	3.7493	-2.62391e-08
2	1	0	1	0	254636	-0.208064	-0.20877	0.000131326	3	3.98972e-05	43	4.0493	-2.7417e-08
2	1	0	1	0	254637	-0.205065	-0.205781	0.000140889	3	3.99381e-05	43	4.3493	-2.89922e-08
2	1	0	1	0	254637	-0.202065	-0.202799	0.000149157	3	3.99816e-05	43	4.6492	-3.0249e-08
2	1	0	1	0	254637	-0.199066	-0.1998	0.000158531	3	4.00278e-05	43	4.9491	-3.16745e-08
2	1	0	1	0	254637	-0.196067	-0.196801	0.00016657	3	4.00764e-05	43	5.2491	-3.27812e-08
2	1	0	1	0	254638	-0.193067	-0.193821	0.000175141	3	4.01275e-05	43	5.5491	-3.3946e-08
2	1	0	1	0	254638	-0.190068	-0.19081	0.000185133	3	4.01817e-05	43	5.8489	-3.53253e-08
2	1	0	1	0	254638	-0.187068	-0.187816	0.000193189	3	4.02384e-05	43	6.1489	-3.6284e-08
2	1	0	1	0	254639	-0.184069	-0.18482	0.000202409	3	4.02979e-05	43	6.4489	-3.74094e-08
2	1	0	1	0	254639	-0.181069	-0.181799	0.000212151	3	4.036e-05	43	6.7489	-3.85689e-08
2	1	0	1	0	254639	-0.17807	-0.178798	0.000219795	3	4.04248e-05	43	7.0487	-3.92989e-08
2	1	0	1	0	254640	-0.17507	-0.175796	0.000230958	3	4.04923e-05	43	7.3487	-4.06016e-08
2	1	0	1	0	254640	-0.172071	-0.172793	0.000238584	3	4.05625e-05	43	7.6487	-4.12256e-08
2	1	0	1	0	254640	-0.169071	-0.169801	0.000248169	3	4.06354e-05	43	7.9487	-4.21395e-08
2	1	0	1	0	254640	-0.166072	-0.166805	0.00025864	3	4.07113e-05	43	8.2485	-4.31424e-08
2	1	0	1	0	254641	-0.163072	-0.163833	0.000266887	3	4.07902e-05	43	8.5485	-4.37249e-08
2	1	0	1	0	254641	-0.160073	-0.160813	0.000276242	3	4.08718e-05	43	8.8485	-4.44233e-08
2	1	0	1	0	254641	-0.157073	-0.157822	0.000285553	3	4.09561e-05	43	9.1484	-4.50664e-08
2	1	0	1	0	254642	-0.154074	-0.15482	0.000296096	3	4.10435e-05	43	9.4483	-4.58417e-08
2	1	0	1	0	254642	-0.151075	-0.151845	0.000304645	3	4.11338e-05	43	9.7483	-4.62589e-08
2	1	0	1	0	254642	-0.148075	-0.148837	0.00031498	3	4.12267e-05	43	10.0483	-4.68805e-08
2	1	0	1	0	254643	-0.145076	-0.145823	0.00032449	3	4.13226e-05	43	10.3481	-4.73182e-08
2	1	0	1	0	254643	-0.142076	-0.142846	0.000334535	3	4.14216e-05	43	10.6481	-4.7787e-08
2	1	0	1	0	254643	-0.139077	-0.139844	0.000344651	3	4.15236e-05	43	10.9481	-4.81972e-08
2	1	0	1	0	254643	-0.136077	-0.136832	0.000354219	3	4.16282e-05	43	11.2481	-4.84685e-08
2	1	0	1	0	254644	-0.133078	-0.133843	0.000364898	3	4.17361e-05	43	11.5479	-4.88389e-08
2	1	0	1	0	254644	-0.130078	-0.130848	0.000373077	3	4.18467e-05	43	11.8479	-4.88164e-08
2	1	0	1	0	254644	-0.127079	-0.127855	0.000382733	3	4.19602e-05	43	12.1479	-4.89342e-08
2	1	0	1	0	254645	-0.124079	-0.12484	0.000394803	3	4.20769e-05	43	12.4479	-4.92873e-08
2	1	0	1	0	254645	-0.12108	-0.121865	0.000404911	3	4.21968e-05	43	12.7477	-4.93447e-08
2	1	0	1	0	254645	-0.11808	-0.118868	0.000414815	3	4.23196e-05	43	13.0477	-4.93084e-08
2	1	0	1	0	254646	-0.115081	-0.115862	0.000426354	3	4.24457e-05	43	13.3477	-4.93981e-08
2	1	0	1	0	254646	-0.112082	-0.112876	0.000436952	3	4.25749e-05	43	13.6475	-4.93213e-08
2	1	0	1	0	254646	-0.109082	-0.109871	0.00044617	3	4.27074e-05	43	13.9475	-4.90211e-08
2	1	0	1	0	254646	-0.106083	-0.106898	0.00045828	3	4.28428e-05	43	14.2475	-4.89891e-08
2	1	0	1	0	254647	-0.103083	-0.103881	0.000466961	3	4.29815e-05	43	14.5475	-4.85083e-08
2	1	0	1	0	254647	-0.100084	-0.100874	0.000478017	3	4.31236e-05	43	14.8473	-4.82194e-08
2	1	0	1	0	254647	-0.0970842	-0.0978722	0.000492554	3	4.32691e-05	43	15.1473	-4.82073e-08
2	1	0	1	0	254648	-0.0940847	-0.0948721	0.000501423	3	4.34183e-05	43	15.4473	-4.7571e-08
2	1	0	1	0	254648	-0.0910853	-0.0918687	0.000513674	3	4.35706e-05	43	15.7473	-4.71906e-08
2	1	0	1	0	254648	-0.0880858	-0.0888653	0.000521747	3	4.37259e-05	43	16.0471	-4.63651e-08
2	1	0	1	0	254649	-0.0850863	-0.0858754	0.000533931	3	4.38843e-05	43	16.3471	-4.58515e-08
2	1	0	1	0	254649	-0.0820869	-0.0828718	0.000547949	3	4.40465e-05	43	16.6471	-4.54095e-08
2	1	0	1	0	254649	-0.0790874	-0.0798668	0.000557494	3	4.42126e-05	43	16.9471	-4.45253e-08
2	1	0	1	0	254649	-0.076088	-0.0768715	0.000570023	3	4.43818e-05	43	17.2469	-4.38185e-08
2	1	0	1	0	254650	-0.0730885	-0.0738863	0.000584417	3	4.45549e-05	43	17.5469	-4.31804e-08
2	1	0	1	0	254650	-0.070089	-0.0708873	0.000594283	3	4.47314e-05	43	17.8469	-4.21271e-08
2	1	0	1	0	254650	-0.0670896	-0.0678792	0.000603738	3	4.49113e-05	43	18.1467	-4.09813e-08
2	1	0	1	0	254651	-0.0640901	-0.0648718	0.000623612	3	4.50963e-05	43	18.4467	-4.04548e-08
2	1	0	1	0	254651	-0.0610906	-0.061877	0.000633678	3	4.52846e-05	43	18.7467	-3.92101e-08
2	1	0	1	0	254651	-0.0580911	-0.0588834	0.0006433	3	4.54762e-05	43	19.0467	-3.78797e-08
2	1	0	1	0	254652	-0.0550917	-0.0558975	0.000650969	3	4.56697e-05	43	19.3465	-3.63876e-08
2	1	0	1	0	254652	-0.0520922	-0.0528871	0.000666333	3	4.58674e-05	43	19.6465	-3.52404e-08
2	1	0	1	0	254652	-0.0490928	-0.0498888	0.00067436	3	4.60686e-05	43	19.9465	-3.3643e-08
2	1	0	1	0	254652	-0.0460933	-0.046893	0.000686989	3	4.6273e-05	43	20.2465	-3.2215e-08
2	1	0	1	0	254653	-0.0430938	-0.0439097	0.000700222	3	4.6481e-05	43	20.5463	-3.07465e-08
2	1	0	1	0	254653	-0.0400944	-0.040922	0.000716668	3	4.66937e-05	43	20.8463	-2.93275e-08
2	1	0	1	0	254653	-0.0370949	-0.0379283	0.000727736	3	4.69107e-05	43	21.1463	-2.76018e-08
2	1	0	1	0	254654	-0.0340954	-0.0349145	0.000744009	3	4.71314e-05	43	21.4463	-2.59767e-08
2	1	0	1	0	254654	-0.031096	-0.031904	0.000752437	3	4.73556e-05	43	21.7461	-2.40058e-08
2	1	0	1	0	254654	-0.0280965	-0.0289239	0.000768272	3	4.75838e-05	43	22.0461	-2.22215e-08
2	1	0	1	0	254655	-0.025097	-0.0259127	0.00077931	3	4.78163e-05	43	22.3461	-2.0194e-08
2	1	0	1	0	254655	-0.0220976	-0.0229311	0.000794001	3	4.80524e-05	43	22.6459	-1.82073e-08
2	1	0	1	0	254655	-0.0190981	-0.0199026	0.000808992	3	4.82927e-05	43	22.9459	-1.61011e-08
2	1	0	1	0	254655	-0.0160986	-0.0169019	0.000822642	3	4.85371e-05	43	23.2459	-1.39043e-08
2	1	0	1	0	254656	-0.0130992	-0.0139095	0.0008341	3	4.87865e-05	43	23.5459	-1.16019e-08
2	1	0	1	0	254656	-0.0100997	-0.0109085	0.000849172	3	4.90387e-05	43	23.8457	-9.26315e-09
2	1	0	1	0	254656	-0.00710023	-0.00792369	0.0008597	3	4.92954e-05	43	24.1457	-6.812e-09
2	1	0	1	0	254657	-0.00410077	-0.00491008	0.000880206	3	4.95564e-05	43	24.4457	-4.32188e-09
2	1	0	1	0	254657	-0.0011013	-0.00194271	0.00088999	3	4.9822e-05	43	24.7457	-1.729e-09
2	1	0	1	1	254657	-0.00125127	-0.000347872	0.000890171	3	5.00326e-05	43	24.9809	-3.09666e-10
2	1	0	1	1	254657	-0.00425074	-0.00333985	0.000836462	3	5.029e-05	43	25.2809	-2.79366e-09
2	1	0	1	1	254658	-0.0072502	-0.00634413	0.000818095	3	5.05385e-05	43	25.5809	-5.1901e-09
2	1	0	1	1	254658	-0.0102497	-0.00931298	0.000798638	3	5.07808e-05	43	25.8809	-7.4377e-09
2	1	0	1	1	254658	-0.0132491	-0.0123058	0.000781375	3	5.10177e-05	43	26.1807	-9.61544e-09
2	1	0	1	1	254659	-0.0162486	-0.0153209	0.000763576	3	5.12496e-05	43	26.4807	-1.16987e-08
2	1	0	1	1	254659	-0.0192481	-0.0183211	0.000745093	3	5.14761e-05	43	26.7807	-1.3651e-08
2	1	0	1	1	254659	-0.0222475	-0.021297	0.000729196	3	5.16963e-05	43	27.0807	-1.55297e-08
2	1	0	1	1	254660	-0.025247	-0.0242964	0.000709704	3	5.1912e-05	43	27.3805	-1.72432e-08
2	1	0	1	1	254660	-0.0282465	-0.0273219	0.000698571	3	5.21234e-05	43	27.6805	-1.90863e-08
2	1	0	1	1	254660	-0.0312459	-0.0303277	0.000682014	3	5.23304e-05	43	27.9805	-2.06839e-08
2	1	0	1	1	254660	-0.0342454	-0.0333126	0.000664875	3	5.25325e-05	43	28.2803	-2.21487e-08
2	1	0	1	1	254661	-0.0372449	-0.0363137	0.000652154	3	5.27297e-05	43	28.5803	-2.36821e-08
2	1	0	1	1	254661	-0.0402443	-0.0393099	0.000640472	3	5.2924e-05	43	28.8803	-2.51769e-08
2	1	0	1	1	254661	-0.0432438	-0.0422975	0.000622149	3	5.31138e-05	43	29.1803	-2.63153e-08
2	1	0	1	1	254662	-0.0462433	-0.0453085	0.000609812	3	5.32985e-05	43	29.4801	-2.76297e-08
2	1	0	1	1	254662	-0.0492427	-0.0482926	0.000597853	3	5.34792e-05	43	29.7801	-2.88719e-08
2	1	0	1	1	254662	-0.0522422	-0.0513001	0.000580914	3	5.36561e-05	43	30.0801	-2.98009e-08
2	1	0	1	1	254663	-0.0552417	-0.054284	0.000569315	3	5.3829e-05	43	30.3801	-3.09047e-08
2	1	0	1	1	254663	-0.0582411	-0.0573002	0.000556237	3	5.39976e-05	43	30.6799	-3.18725e-08
2	1	0	1	1	254663	-0.0612406	-0.0602854	0.000540428	3	5.41624e-05	43	30.9799	-3.25799e-08
2	1	0	1	1	254663	-0.0642401	-0.0633111	0.000527532	3	5.43226e-05	43	31.2799	-3.33986e-08
2	1	0	1	1	254664	-0.0672386	-0.0662961	0.000516868	3	5.44794e-05	43	31.5798	-3.42663e-08
2	1	0	1	1	254664	-0.070239	-0.0692817	0.000504418	3	5.46327e-05	43	31.8797	-3.49469e-08
2	1	0	1	1	254664	-0.0732385	-0.072273	0.0004929	3	5.47825e-05	43	32.1797	-3.56234e-08
2	1	0	1	1	254665	-0.0762379	-0.0752983	0.000477964	3	5.49281e-05	43	32.4797	-3.59899e-08
2	1	0	1	1	254665	-0.0792374	-0.0782724	0.000469771	3	5.50702e-05	43	32.7795	-3.67701e-08
2	1	0	1	1	254665	-0.0822369	-0.0812778	0.000457043	3	5.52087e-05	43	33.0795	-3.71474e-08
2	1	0	1	1	254666	-0.0852363	-0.0842602	0.000445715	3	5.5344e-05	43	33.3795	-3.7556e-08
2	1	0	1	1	254666	-0.0882358	-0.0872742	0.000439052	3	5.54761e-05	43	33.6795	-3.8318e-08
2	1	0	1	1	254666	-0.0912353	-0.0902751	0.000426296	3	5.56065e-05	43	33.9793	-3.84839e-08
2	1	0	1	1	254666	-0.0942347	-0.0932696	0.000414208	3	5.57325e-05	43	34.2793	-3.8633e-08
2	1	0	1	1	254667	-0.0972342	-0.0962529	0.000402221	3	5.58551e-05	43	34.5793	-3.8715e-08
2	1	0	1	1	254667	-0.100234	-0.0992636	0.000390347	3	5.59741e-05	43	34.8793	-3.87473e-08
2	1	0	1	1	254667	-0.103233	-0.102263	0.000376856	3	5.60894e-05	43	35.1791	-3.85384e-08
2	1	0	1	1	254668	-0.106233	-0.105259	0.000367325	3	5.62006e-05	43	35.4791	-3.86643e-08
2	1	0	1	1	254668	-0.109232	-0.108256	0.000358438	3	5.63094e-05	43	35.7791	-3.88029e-08
2	1	0	1	1	254668	-0.112231	-0.111252	0.000348393	3	5.6415e-05	43	36.079	-3.87595e-08
2	1	0	1	1	254669	-0.115231	-0.11426	0.000336856	3	5.65179e-05	43	36.3789	-3.84892e-08
2	1	0	1	1	254669	-0.11823	-0.117237	0.000328351	3	5.66177e-05	43	36.6789	-3.84948e-08
2	1	0	1	1	254669	-0.12123	-0.120276	0.000316118	3	5.67142e-05	43	36.9789	-3.80213e-08
2	1	0	1	1	254669	-0.124229	-0.123281	0.000307642	3	5.6808e-05	43	37.2787	-3.79265e-08
2	1	0	1	1	254670	-0.127229	-0.126242	0.000296057	3	5.68987e-05	43	37.5787	-3.7375e-08
2	1	0	1	1	254670	-0.130228	-0.129258	0.00028806	3	5.69863e-05	43	37.8787	-3.72342e-08
2	1	0	1	1	254670	-0.133228	-0.132231	0.000277229	3	5.70712e-05	43	38.1787	-3.66582e-08
2	1	0	1	1	254671	-0.136227	-0.135232	0.00026944	3	5.71533e-05	43	38.4785	-3.6437e-08
2	1	0	1	1	254671	-0.139227	-0.138214	0.000257888	3	5.72323e-05	43	38.7785	-3.56437e-08
2	1	0	1	1	254671	-0.142226	-0.141239	0.000249393	3	5.73085e-05	43	39.0785	-3.52241e-08
2	1	0	1	1	254672	-0.145226	-0.144212	0.000241502	3	5.73822e-05	43	39.3785	-3.48275e-08
2	1	0	1	1	254672	-0.148225	-0.147259	0.000232188	3	5.74529e-05	43	39.6783	-3.41917e-08
2	1	0	1	1	254672	-0.151225	-0.150212	0.000221106	3	5.7521e-05	43	39.9783	-3.32129e-08
2	1	0	1	1	254672	-0.154224	-0.153241	0.000212816	3	5.75863e-05	43	40.2783	-3.2612e-08
2	1	0	1	1	254673	-0.157224	-0.156238	0.0002045	3	5.76489e-05	43	40.5782	-3.19507e-08
2	1	0	1	1	254673	-0.160223	-0.159241	0.000194833	3	5.7709e-05	43	40.8781	-3.10254e-08
2	1	0	1	1	254673	-0.163222	-0.162231	0.000185382	3	5.77662e-05	43	41.1781	-3.00748e-08
2	1	0	1	1	254674	-0.166222	-0.165221	0.000177876	3	5.78207e-05	43	41.4781	-2.93889e-08
2	1	0	1	1	254674	-0.169221	-0.168233	0.000168972	3	5.78725e-05	43	41.7779	-2.84266e-08
2	1	0	1	1	254674	-0.172221	-0.171209	0.000159581	3	5.79219e-05	43	42.0779	-2.73218e-08
2	1	0	1	1	254675	-0.17522	-0.174217	0.000152279	3	5.79687e-05	43	42.3779	-2.65294e-08
2	1	0	1	1	254675	-0.17822	-0.177204	0.000144815	3	5.80135e-05	43	42.6779	-2.56619e-08
2	1	0	1	1	254675	-0.181219	-0.180189	0.000134513	3	5.80553e-05	43	42.9777	-2.42379e-08
2	1	0	1	1	254675	-0.184219	-0.183215	0.000125936	3	5.80945e-05	43	43.2777	-2.30734e-08
2	1	0	1	1	254676	-0.187218	-0.186242	0.000117128	3	5.81311e-05	43	43.5777	-2.18142e-08
2	1	0	1	1	254676	-0.190218	-0.189226	0.000110406	3	5.81652e-05	43	43.8777	-2.08917e-08
2	1	0	1	1	254676	-0.193217	-0.192216	0.000101194	3	5.8197e-05	43	44.1775	-1.9451e-08
2	1	0	1	1	254677	-0.196217	-0.195199	9.34372e-05	3	5.82261e-05	43	44.4775	-1.82389e-08
2	1	0	1	1	254677	-0.199216	-0.198212	8.47781e-05	3	5.82527e-05	43	44.7775	-1.68041e-08
2	1	0	1	1	254677	-0.202216	-0.201219	7.62562e-05	3	5.82769e-05	43	45.0774	-1.53442e-08
2	1	0	1	1	254678	-0.205215	-0.204193	6.7808e-05	3	5.82986e-05	43	45.3773	-1.38459e-08
2	1	0	1	1	254678	-0.208214	-0.207202	5.99717e-05	3	5.83177e-05	43	45.6773	-1.24263e-08
2	1	0	1	1	254678	-0.211214	-0.21019	5.19854e-05	3	5.83344e-05	43	45.9773	-1.09268e-08
2	1	0	1	1	254678	-0.214213	-0.213212	4.31189e-05	3	5.83487e-05	43	46.2771	-9.19346e-09
2	1	0	1	1	254679	-0.221212	-0.220204	2.5222e-05	3	5.83748e-05	44	46.9771	-5.55398e-09
2	1	0	1	1	254679	-0.224212	-0.223197	1.63041e-05	3	5.8381e-05	44	47.2771	-3.63902e-09
2	1	0	1	1	254680	-0.227211	-0.226226	8.92938e-06	3	5.83848e-05	44	47.5769	-2.02006e-09
2	0	0	1	1	254680	-0.23421	-0.233218	-9.02983e-06	3	5.83869e-05	45	0.000000000000000E+000	2.10592e-09
2	0	0	1	1	254681	-0.241209	-0.2402	-2.77146e-05	3	5.8376e-05	44	0.6998	6.65704e-09
2	0	0	1	1	254681	-0.244208	-0.243195	-3.66973e-05	3	5.83664e-05	44	0.9998	8.92462e-09
2	0	0	1	1	254682	-0.247133	-0.246119	-4.36909e-05	3	5.83546e-05	44	1.2922	1.07532e-08
2	0	0	0	1	254682	-0.247332	-0.246317	-4.39348e-05	3	5.83539e-05	44	1.3079	1.08219e-08