File: data_dir/600_B_immertest4/600_B_08_CP_C03.mpt
EC-Lab ASCII FILE
Nb header lines : 57

Chronopotentiometry

Run on channel : 3 (SN 13150)
User :
Electrode connection : standard
Potential control : Ewe
Ewe ctrl range : min = -1.00 V, max = 1.00 V
Ewe,I filtering : 5 Hz
Safety Limits :
	Do not start on E overload
Channel : Floating
Acquisition started on : 07/01/2024 16:51:05.709
Loaded Setting File :  C:\Users\mAtsuhitA\Desktop\Oyafuso\20240624_???????4\1540_A.mps
Saved on :
	File : 600_B_08_CP_C03.mpr
	Directory : C:\Users\mAtsuhitA\Desktop\Oyafuso\20240624_???????4\600_B\
	Host : 192.109.209.100
Device : VSP-300 (SN 0834)
Address : 192.109.209.128
EC-Lab for windows v11.50 (software)
Internet server v11.50 (firmware)
Command interpretor v11.50 (firmware)
Electrode material :
Initial state :
Electrolyte :
Comments :
Cable : standard
Electrode surface area : 0.001 cm2
Characteristic mass : 0.001 g
Equivalent Weight : 0.000 g/eq.
Density : 0.000 g/cm3
Volume (V) : 0.001 cm3
Text export
   Mode : Standard
   Time format : Elapsed
Cycle Definition : Charge/Discharge alternance
Is                  200.000
unit Is             nA
vs.                 <None>
ts (h:m:s)          1000:40:0.0000
EM (V)              0.000
dQM                 200.133
unit dQM            uA.h
record              Ewe
dEs (mV)            10.00
dts (s)             10.0000
E range min (V)     -1.000
E range max (V)     1.000
I Range             1 uA
Bandwidth           8
goto Ns'            0
nc cycles           0

mode	ox/red	error	control changes	Ns changes	counter inc.	Ns	time/s	control/mA	Ewe/V	I/mA	dQ/C	(Q-Qo)/C	half cycle	Q charge/discharge/mA.h	I Range	Energy charge/W.h	Energy discharge/W.h	Capacitance charge/uF	Capacitance discharge/uF	step time/s	Q discharge/mA.h	Q charge/mA.h	Capacity/mA.h	Efficiency/%	cycle number	P/W
1	1	0	1	0	0	0	255282	0.0002	-0.243187	1.30992e-07	0.0000000E+000	0.0000000E+000	0	0.000000000000000E+000	43	0.000000000000000E+000	0.000000000000000E+000	0.000000000000000E+000	0.000000000000000E+000	255282	0.000000000000000E+000	0.000000000000000E+000	0.000000000000000E+000	0.0000000E+000	0.000000000000000E+000	-3.18556e-11
1	1	0	1	0	0	0	255282	0.0002	-0.213003	0.000199844	1.08401e-07	1.08401e-07	0	3.01113e-08	43	6.57295e-12	0.000000000000000E+000	5.39761	0.000000000000000E+000	255282	0.000000000000000E+000	3.01113e-08	3.01113e-08	0.0000000E+000	0.000000000000000E+000	-4.25674e-08
1	1	0	1	0	0	0	255291	0.0002	-0.182987	0.000199948	1.76711e-06	1.76711e-06	0	4.90865e-07	43	9.1844e-11	0.000000000000000E+000	35.273	0.000000000000000E+000	255291	0.000000000000000E+000	4.90865e-07	4.90865e-07	0.0000000E+000	0.000000000000000E+000	-3.65879e-08
1	1	0	1	0	0	0	255321	0.0002	-0.180196	0.000200036	7.76613e-06	7.76613e-06	0	2.15726e-06	43	3.94086e-10	0.000000000000000E+000	146.837	0.000000000000000E+000	255321	0.000000000000000E+000	2.15726e-06	2.15726e-06	0.0000000E+000	0.000000000000000E+000	-3.60457e-08
1	1	0	1	0	0	0	255351	0.0002	-0.178405	0.00019994	1.37651e-05	1.37651e-05	0	3.82364e-06	43	6.92387e-10	0.000000000000000E+000	251.738	0.000000000000000E+000	255351	0.000000000000000E+000	3.82364e-06	3.82364e-06	0.0000000E+000	0.000000000000000E+000	-3.56704e-08
1	1	0	1	0	0	0	255381	0.0002	-0.17561	0.000199971	1.97639e-05	1.97639e-05	0	5.48998e-06	43	9.86913e-10	0.000000000000000E+000	343.867	0.000000000000000E+000	255381	0.000000000000000E+000	5.48998e-06	5.48998e-06	0.0000000E+000	0.000000000000000E+000	-3.51169e-08
1	1	0	1	0	0	0	255411	0.0002	-0.17367	0.000199944	2.57631e-05	2.57631e-05	0	7.15643e-06	43	1.27725e-09	0.000000000000000E+000	433.611	0.000000000000000E+000	255411	0.000000000000000E+000	7.15643e-06	7.15643e-06	0.0000000E+000	0.000000000000000E+000	-3.47243e-08
1	1	0	1	0	0	0	255441	0.0002	-0.172548	0.000199994	3.17623e-05	3.17623e-05	0	8.82287e-06	43	1.56578e-09	0.000000000000000E+000	524.668	0.000000000000000E+000	255441	0.000000000000000E+000	8.82287e-06	8.82287e-06	0.0000000E+000	0.000000000000000E+000	-3.45085e-08
1	1	0	1	0	0	0	255471	0.0002	-0.170864	0.000199948	3.77618e-05	3.77618e-05	0	1.04894e-05	43	1.85146e-09	0.000000000000000E+000	606.89	0.000000000000000E+000	255471	0.000000000000000E+000	1.04894e-05	1.04894e-05	0.0000000E+000	0.000000000000000E+000	-3.41638e-08
1	1	0	1	0	0	0	255501	0.0002	-0.168813	0.000199936	4.37611e-05	4.37611e-05	0	1.21559e-05	43	2.13427e-09	0.000000000000000E+000	680.87	0.000000000000000E+000	255501	0.000000000000000E+000	1.21559e-05	1.21559e-05	0.0000000E+000	0.000000000000000E+000	-3.37519e-08
1	1	0	1	0	0	0	255531	0.0002	-0.165984	0.000199986	4.97605e-05	4.97605e-05	0	1.38224e-05	43	2.41307e-09	0.000000000000000E+000	741.567	0.000000000000000E+000	255531	0.000000000000000E+000	1.38224e-05	1.38224e-05	0.0000000E+000	0.000000000000000E+000	-3.31944e-08
1	1	0	1	0	0	0	255561	0.0002	-0.164319	0.000199952	5.57595e-05	5.57595e-05	0	1.54887e-05	43	2.68805e-09	0.000000000000000E+000	810.85	0.000000000000000E+000	255561	0.000000000000000E+000	1.54887e-05	1.54887e-05	0.0000000E+000	0.000000000000000E+000	-3.28558e-08
1	1	0	1	0	0	0	255591	0.0002	-0.163131	0.000199936	6.17587e-05	6.17587e-05	0	1.71552e-05	43	2.96038e-09	0.000000000000000E+000	882.845	0.000000000000000E+000	255591	0.000000000000000E+000	1.71552e-05	1.71552e-05	0.0000000E+000	0.000000000000000E+000	-3.26159e-08
1	1	0	1	0	0	0	255621	0.0002	-0.161333	0.000199975	6.77579e-05	6.77579e-05	0	1.88216e-05	43	3.22977e-09	0.000000000000000E+000	944.325	0.000000000000000E+000	255621	0.000000000000000E+000	1.88216e-05	1.88216e-05	0.0000000E+000	0.000000000000000E+000	-3.22625e-08
1	1	0	1	0	0	0	255651	0.0002	-0.15887	0.000199963	7.37572e-05	7.37572e-05	0	2.04881e-05	43	3.49546e-09	0.000000000000000E+000	993.824	0.000000000000000E+000	255651	0.000000000000000E+000	2.04881e-05	2.04881e-05	0.0000000E+000	0.000000000000000E+000	-3.17681e-08
1	1	0	1	0	0	0	255681	0.0002	-0.156778	0.000199917	7.97566e-05	7.97566e-05	0	2.21546e-05	43	3.75827e-09	0.000000000000000E+000	1045.19	0.000000000000000E+000	255681	0.000000000000000E+000	2.21546e-05	2.21546e-05	0.0000000E+000	0.000000000000000E+000	-3.13425e-08
1	1	0	1	0	0	0	255711	0.0002	-0.15554	0.000199994	8.57562e-05	8.57562e-05	0	2.38212e-05	43	4.01829e-09	0.000000000000000E+000	1105.89	0.000000000000000E+000	255711	0.000000000000000E+000	2.38212e-05	2.38212e-05	0.0000000E+000	0.000000000000000E+000	-3.11071e-08
1	1	0	1	0	0	0	255741	0.0002	-0.152818	0.000199978	9.17556e-05	9.17556e-05	0	2.54877e-05	43	4.27418e-09	0.000000000000000E+000	1143.12	0.000000000000000E+000	255741	0.000000000000000E+000	2.54877e-05	2.54877e-05	0.0000000E+000	0.000000000000000E+000	-3.05603e-08
1	1	0	1	0	0	0	255771	0.0002	-0.150977	0.000199994	9.77548e-05	9.77548e-05	0	2.71541e-05	43	4.52673e-09	0.000000000000000E+000	1190.56	0.000000000000000E+000	255771	0.000000000000000E+000	2.71541e-05	2.71541e-05	0.0000000E+000	0.000000000000000E+000	-3.01945e-08
1	1	0	1	0	0	0	255801	0.0002	-0.149095	0.000199955	0.000103754	0.000103754	0	2.88206e-05	43	4.77543e-09	0.000000000000000E+000	1235.3	0.000000000000000E+000	255801	0.000000000000000E+000	2.88206e-05	2.88206e-05	0.0000000E+000	0.000000000000000E+000	-2.98123e-08
1	1	0	1	0	0	0	255831	0.0002	-0.146437	0.000200028	0.000109754	0.000109754	0	3.04871e-05	43	5.02021e-09	0.000000000000000E+000	1266.65	0.000000000000000E+000	255831	0.000000000000000E+000	3.04871e-05	3.04871e-05	0.0000000E+000	0.000000000000000E+000	-2.92915e-08
1	1	0	1	0	0	0	255861	0.0002	-0.144853	0.000199932	0.000115753	0.000115753	0	3.21535e-05	43	5.26259e-09	0.000000000000000E+000	1311.89	0.000000000000000E+000	255861	0.000000000000000E+000	3.21535e-05	3.21535e-05	0.0000000E+000	0.000000000000000E+000	-2.89607e-08
1	1	0	1	0	0	0	255891	0.0002	-0.142966	0.000199986	0.000121752	0.000121752	0	3.38199e-05	43	5.5022e-09	0.000000000000000E+000	1351	0.000000000000000E+000	255891	0.000000000000000E+000	3.38199e-05	3.38199e-05	0.0000000E+000	0.000000000000000E+000	-2.85912e-08
1	1	0	1	0	0	0	255921	0.0002	-0.14087	0.000199952	0.000127751	0.000127751	0	3.54863e-05	43	5.73797e-09	0.000000000000000E+000	1385.35	0.000000000000000E+000	255921	0.000000000000000E+000	3.54863e-05	3.54863e-05	0.0000000E+000	0.000000000000000E+000	-2.81672e-08
1	1	0	1	0	0	0	255951	0.0002	-0.138861	0.000199982	0.00013375	0.00013375	0	3.71527e-05	43	5.97034e-09	0.000000000000000E+000	1419.48	0.000000000000000E+000	255951	0.000000000000000E+000	3.71527e-05	3.71527e-05	0.0000000E+000	0.000000000000000E+000	-2.77698e-08
1	1	0	1	0	0	0	255981	0.0002	-0.136265	0.000199997	0.000139749	0.000139749	0	3.88192e-05	43	6.1992e-09	0.000000000000000E+000	1443.38	0.000000000000000E+000	255981	0.000000000000000E+000	3.88192e-05	3.88192e-05	0.0000000E+000	0.000000000000000E+000	-2.72526e-08
1	1	0	1	0	0	0	256011	0.0002	-0.134676	0.000199986	0.000145748	0.000145748	0	4.04857e-05	43	6.42514e-09	0.000000000000000E+000	1481.04	0.000000000000000E+000	256011	0.000000000000000E+000	4.04857e-05	4.04857e-05	0.0000000E+000	0.000000000000000E+000	-2.69334e-08
1	1	0	1	0	0	0	256041	0.0002	-0.132725	0.000199959	0.000151748	0.000151748	0	4.21522e-05	43	6.6478e-09	0.000000000000000E+000	1512.03	0.000000000000000E+000	256041	0.000000000000000E+000	4.21522e-05	4.21522e-05	0.0000000E+000	0.000000000000000E+000	-2.65396e-08
1	1	0	1	0	0	0	256071	0.0002	-0.131205	0.000200017	0.000157748	0.000157748	0	4.38188e-05	43	6.86712e-09	0.000000000000000E+000	1548.36	0.000000000000000E+000	256071	0.000000000000000E+000	4.38188e-05	4.38188e-05	0.0000000E+000	0.000000000000000E+000	-2.62432e-08
1	1	0	1	0	0	0	256101	0.0002	-0.127738	0.000199944	0.000163747	0.000163747	0	4.54853e-05	43	7.08179e-09	0.000000000000000E+000	1554.35	0.000000000000000E+000	256101	0.000000000000000E+000	4.54853e-05	4.54853e-05	0.0000000E+000	0.000000000000000E+000	-2.55405e-08
1	1	0	1	0	0	0	256131	0.0002	-0.125531	0.000200001	0.000169747	0.000169747	0	4.71519e-05	43	7.29198e-09	0.000000000000000E+000	1578.24	0.000000000000000E+000	256131	0.000000000000000E+000	4.71519e-05	4.71519e-05	0.0000000E+000	0.000000000000000E+000	-2.51064e-08
1	1	0	1	0	0	0	256161	0.0002	-0.12342	0.000199948	0.000175747	0.000175747	0	4.88185e-05	43	7.4984e-09	0.000000000000000E+000	1602.56	0.000000000000000E+000	256161	0.000000000000000E+000	4.88185e-05	4.88185e-05	0.0000000E+000	0.000000000000000E+000	-2.46775e-08
1	1	0	1	0	0	0	256191	0.0002	-0.122774	0.000200017	0.000181746	0.000181746	0	5.04851e-05	43	7.70253e-09	0.000000000000000E+000	1647.57	0.000000000000000E+000	256191	0.000000000000000E+000	5.04851e-05	5.04851e-05	0.0000000E+000	0.000000000000000E+000	-2.45569e-08
1	1	0	1	0	0	0	256221	0.0002	-0.119887	0.000199982	0.000187746	0.000187746	0	5.21516e-05	43	7.90333e-09	0.000000000000000E+000	1658.56	0.000000000000000E+000	256221	0.000000000000000E+000	5.21516e-05	5.21516e-05	0.0000000E+000	0.000000000000000E+000	-2.39754e-08
1	1	0	1	0	0	0	256251	0.0002	-0.117436	0.000199986	0.000193746	0.000193746	0	5.38182e-05	43	8.1003e-09	0.000000000000000E+000	1675.28	0.000000000000000E+000	256251	0.000000000000000E+000	5.38182e-05	5.38182e-05	0.0000000E+000	0.000000000000000E+000	-2.34856e-08
1	1	0	1	0	0	0	256281	0.0002	-0.114473	0.000200005	0.000199745	0.000199745	0	5.54849e-05	43	8.29287e-09	0.000000000000000E+000	1684.01	0.000000000000000E+000	256281	0.000000000000000E+000	5.54849e-05	5.54849e-05	0.0000000E+000	0.000000000000000E+000	-2.28952e-08
1	1	0	1	0	0	0	256311	0.0002	-0.113094	0.000199967	0.000205745	0.000205745	0	5.71514e-05	43	8.48286e-09	0.000000000000000E+000	1714.67	0.000000000000000E+000	256311	0.000000000000000E+000	5.71514e-05	5.71514e-05	0.0000000E+000	0.000000000000000E+000	-2.26151e-08
1	1	0	1	0	0	0	256341	0.0002	-0.110998	0.00020002	0.000211745	0.000211745	0	5.8818e-05	43	8.66935e-09	0.000000000000000E+000	1734.37	0.000000000000000E+000	256341	0.000000000000000E+000	5.8818e-05	5.8818e-05	0.0000000E+000	0.000000000000000E+000	-2.22019e-08
1	1	0	1	0	0	0	256371	0.0002	-0.109398	0.000200001	0.000217745	0.000217745	0	6.04846e-05	43	8.85266e-09	0.000000000000000E+000	1760.44	0.000000000000000E+000	256371	0.000000000000000E+000	6.04846e-05	6.04846e-05	0.0000000E+000	0.000000000000000E+000	-2.18798e-08
1	1	0	1	0	0	0	256401	0.0002	-0.108226	0.000200013	0.000223744	0.000223744	0	6.21512e-05	43	9.03438e-09	0.000000000000000E+000	1791.97	0.000000000000000E+000	256401	0.000000000000000E+000	6.21512e-05	6.21512e-05	0.0000000E+000	0.000000000000000E+000	-2.16466e-08
1	1	0	1	0	0	0	256431	0.0002	-0.106653	0.000200047	0.000229744	0.000229744	0	6.38178e-05	43	9.21252e-09	0.000000000000000E+000	1817.12	0.000000000000000E+000	256431	0.000000000000000E+000	6.38178e-05	6.38178e-05	0.0000000E+000	0.000000000000000E+000	-2.13356e-08
1	1	0	1	0	0	0	256461	0.0002	-0.104545	0.000200005	0.000235744	0.000235744	0	6.54845e-05	43	9.38799e-09	0.000000000000000E+000	1834	0.000000000000000E+000	256461	0.000000000000000E+000	6.54845e-05	6.54845e-05	0.0000000E+000	0.000000000000000E+000	-2.09095e-08
1	1	0	1	0	0	0	256491	0.0002	-0.102071	0.000200001	0.000241744	0.000241744	0	6.71511e-05	43	9.55912e-09	0.000000000000000E+000	1845.16	0.000000000000000E+000	256491	0.000000000000000E+000	6.71511e-05	6.71511e-05	0.0000000E+000	0.000000000000000E+000	-2.04142e-08
1	1	0	1	0	0	0	256521	0.0002	-0.101456	0.000199971	0.000247743	0.000247743	0	6.88176e-05	43	9.72777e-09	0.000000000000000E+000	1882.12	0.000000000000000E+000	256521	0.000000000000000E+000	6.88176e-05	6.88176e-05	0.0000000E+000	0.000000000000000E+000	-2.02882e-08
1	1	0	1	0	0	0	256551	0.0002	-0.0997795	0.000199997	0.000253743	0.000253743	0	7.04841e-05	43	9.89532e-09	0.000000000000000E+000	1903.46	0.000000000000000E+000	256551	0.000000000000000E+000	7.04841e-05	7.04841e-05	0.0000000E+000	0.000000000000000E+000	-1.99556e-08
1	1	0	1	0	0	0	256581	0.0002	-0.0984468	0.000199955	0.000259742	0.000259742	0	7.21507e-05	43	1.006e-08	0.000000000000000E+000	1929.18	0.000000000000000E+000	256581	0.000000000000000E+000	7.21507e-05	7.21507e-05	0.0000000E+000	0.000000000000000E+000	-1.9685e-08
1	1	0	1	0	0	0	256611	0.0002	-0.0970683	0.000200005	0.000265742	0.000265742	0	7.38171e-05	43	1.02223e-08	0.000000000000000E+000	1953.73	0.000000000000000E+000	256611	0.000000000000000E+000	7.38171e-05	7.38171e-05	0.0000000E+000	0.000000000000000E+000	-1.94142e-08
1	1	0	1	0	0	0	256641	0.0002	-0.0944718	0.00020002	0.000271741	0.000271741	0	7.54836e-05	43	1.03809e-08	0.000000000000000E+000	1960.42	0.000000000000000E+000	256641	0.000000000000000E+000	7.54836e-05	7.54836e-05	0.0000000E+000	0.000000000000000E+000	-1.88963e-08
1	1	0	1	0	0	0	256671	0.0002	-0.092574	0.000200047	0.000277741	0.000277741	0	7.71503e-05	43	1.05363e-08	0.000000000000000E+000	1976.64	0.000000000000000E+000	256671	0.000000000000000E+000	7.71503e-05	7.71503e-05	0.0000000E+000	0.000000000000000E+000	-1.85192e-08
1	1	0	1	0	0	0	256701	0.0002	-0.0914018	0.000200062	0.000283741	0.000283741	0	7.88171e-05	43	1.069e-08	0.000000000000000E+000	2002.64	0.000000000000000E+000	256701	0.000000000000000E+000	7.88171e-05	7.88171e-05	0.0000000E+000	0.000000000000000E+000	-1.82861e-08
1	1	0	1	0	0	0	256731	0.0002	-0.0900577	0.000199997	0.000289742	0.000289742	0	8.04838e-05	43	1.08404e-08	0.000000000000000E+000	2025.77	0.000000000000000E+000	256731	0.000000000000000E+000	8.04838e-05	8.04838e-05	0.0000000E+000	0.000000000000000E+000	-1.80113e-08
1	1	0	1	0	0	0	256761	0.0002	-0.0897598	0.000200009	0.000295742	0.000295742	0	8.21505e-05	43	1.09895e-08	0.000000000000000E+000	2063.42	0.000000000000000E+000	256761	0.000000000000000E+000	8.21505e-05	8.21505e-05	0.0000000E+000	0.000000000000000E+000	-1.79528e-08
1	1	0	1	0	0	0	256791	0.0002	-0.0874993	0.000200013	0.000301741	0.000301741	0	8.38171e-05	43	1.11364e-08	0.000000000000000E+000	2072.59	0.000000000000000E+000	256791	0.000000000000000E+000	8.38171e-05	8.38171e-05	0.0000000E+000	0.000000000000000E+000	-1.7501e-08
1	1	0	1	0	0	0	256821	0.0002	-0.0867165	0.000200017	0.000307741	0.000307741	0	8.54837e-05	43	1.12812e-08	0.000000000000000E+000	2102.5	0.000000000000000E+000	256821	0.000000000000000E+000	8.54837e-05	8.54837e-05	0.0000000E+000	0.000000000000000E+000	-1.73447e-08
1	1	0	1	0	0	0	256851	0.0002	-0.0850898	0.000199967	0.000313741	0.000313741	0	8.71502e-05	43	1.14236e-08	0.000000000000000E+000	2119.93	0.000000000000000E+000	256851	0.000000000000000E+000	8.71502e-05	8.71502e-05	0.0000000E+000	0.000000000000000E+000	-1.70151e-08
1	1	0	1	0	0	0	256881	0.0002	-0.0834021	0.000200013	0.000319741	0.000319741	0	8.88168e-05	43	1.15632e-08	0.000000000000000E+000	2136.11	0.000000000000000E+000	256881	0.000000000000000E+000	8.88168e-05	8.88168e-05	0.0000000E+000	0.000000000000000E+000	-1.66815e-08
1	1	0	1	0	0	0	256911	0.0002	-0.082604	0.000199959	0.00032574	0.00032574	0	9.04833e-05	43	1.17014e-08	0.000000000000000E+000	2164.65	0.000000000000000E+000	256911	0.000000000000000E+000	9.04833e-05	9.04833e-05	0.0000000E+000	0.000000000000000E+000	-1.65174e-08
1	1	0	1	0	0	0	256941	0.0002	-0.0815501	0.000199936	0.000331739	0.000331739	0	9.21498e-05	43	1.18377e-08	0.000000000000000E+000	2189.18	0.000000000000000E+000	256941	0.000000000000000E+000	9.21498e-05	9.21498e-05	0.0000000E+000	0.000000000000000E+000	-1.63048e-08
1	1	0	1	0	0	0	256971	0.0002	-0.0818327	0.000199936	0.000337739	0.000337739	0	9.38163e-05	43	1.19744e-08	0.000000000000000E+000	2232.94	0.000000000000000E+000	256971	0.000000000000000E+000	9.38163e-05	9.38163e-05	0.0000000E+000	0.000000000000000E+000	-1.63613e-08
1	1	0	1	0	0	0	257001	0.0002	-0.0809544	0.000199978	0.000343738	0.000343738	0	9.54828e-05	43	1.21105e-08	0.000000000000000E+000	2259.48	0.000000000000000E+000	257001	0.000000000000000E+000	9.54828e-05	9.54828e-05	0.0000000E+000	0.000000000000000E+000	-1.61891e-08
1	1	0	1	0	0	0	257031	0.0002	-0.0792514	0.000199978	0.000349737	0.000349737	0	9.71493e-05	43	1.22433e-08	0.000000000000000E+000	2273.47	0.000000000000000E+000	257031	0.000000000000000E+000	9.71493e-05	9.71493e-05	0.0000000E+000	0.000000000000000E+000	-1.58486e-08
1	1	0	1	0	0	0	257061	0.0002	-0.0784877	0.000199948	0.000355737	0.000355737	0	9.88158e-05	43	1.23744e-08	0.000000000000000E+000	2301.05	0.000000000000000E+000	257061	0.000000000000000E+000	9.88158e-05	9.88158e-05	0.0000000E+000	0.000000000000000E+000	-1.56934e-08
1	1	0	1	0	0	0	257091	0.0002	-0.0770902	0.000199986	0.000361737	0.000361737	0	0.000100482	43	1.25038e-08	0.000000000000000E+000	2318.89	0.000000000000000E+000	257091	0.000000000000000E+000	0.000100482	0.000100482	0.0000000E+000	0.000000000000000E+000	-1.5417e-08
1	1	0	1	0	0	0	257121	0.0002	-0.0765823	0.000200009	0.000367737	0.000367737	0	0.000102149	43	1.26316e-08	0.000000000000000E+000	2349.71	0.000000000000000E+000	257121	0.000000000000000E+000	0.000102149	0.000102149	0.0000000E+000	0.000000000000000E+000	-1.53171e-08
1	1	0	1	0	0	0	257151	0.0002	-0.0748755	0.000200024	0.000373737	0.000373737	0	0.000103816	43	1.27572e-08	0.000000000000000E+000	2362.28	0.000000000000000E+000	257151	0.000000000000000E+000	0.000103816	0.000103816	0.0000000E+000	0.000000000000000E+000	-1.49769e-08
1	1	0	1	0	0	0	257181	0.0002	-0.0739247	0.000200036	0.000379737	0.000379737	0	0.000105482	43	1.28812e-08	0.000000000000000E+000	2385.87	0.000000000000000E+000	257181	0.000000000000000E+000	0.000105482	0.000105482	0.0000000E+000	0.000000000000000E+000	-1.47876e-08
1	1	0	1	0	0	0	257211	0.0002	-0.073245	0.000199997	0.000385737	0.000385737	0	0.000107149	43	1.30027e-08	0.000000000000000E+000	2413.26	0.000000000000000E+000	257211	0.000000000000000E+000	0.000107149	0.000107149	0.0000000E+000	0.000000000000000E+000	-1.46488e-08
1	1	0	1	0	0	0	257241	0.0002	-0.0728059	0.000199982	0.000391737	0.000391737	0	0.000108816	43	1.31236e-08	0.000000000000000E+000	2444.08	0.000000000000000E+000	257241	0.000000000000000E+000	0.000108816	0.000108816	0.0000000E+000	0.000000000000000E+000	-1.45599e-08
1	1	0	1	0	0	0	257271	0.0002	-0.0708164	0.000199978	0.000397737	0.000397737	0	0.000110482	43	1.32426e-08	0.000000000000000E+000	2451.09	0.000000000000000E+000	257271	0.000000000000000E+000	0.000110482	0.000110482	0.0000000E+000	0.000000000000000E+000	-1.41618e-08
1	1	0	1	0	0	0	257301	0.0002	-0.0695945	0.000199978	0.000403736	0.000403736	0	0.000112149	43	1.3359e-08	0.000000000000000E+000	2469.47	0.000000000000000E+000	257301	0.000000000000000E+000	0.000112149	0.000112149	0.0000000E+000	0.000000000000000E+000	-1.39174e-08
1	1	0	1	0	0	0	257331	0.0002	-0.0690103	0.000199975	0.000409736	0.000409736	0	0.000113815	43	1.34739e-08	0.000000000000000E+000	2497.24	0.000000000000000E+000	257331	0.000000000000000E+000	0.000113815	0.000113815	0.0000000E+000	0.000000000000000E+000	-1.38003e-08
1	1	0	1	0	0	0	257361	0.0002	-0.0681359	0.000199975	0.000415735	0.000415735	0	0.000115482	43	1.35881e-08	0.000000000000000E+000	2520.37	0.000000000000000E+000	257361	0.000000000000000E+000	0.000115482	0.000115482	0.0000000E+000	0.000000000000000E+000	-1.36254e-08
1	1	0	1	0	0	0	257391	0.0002	-0.0676471	0.000199971	0.000421734	0.000421734	0	0.000117148	43	1.37011e-08	0.000000000000000E+000	2549.19	0.000000000000000E+000	257391	0.000000000000000E+000	0.000117148	0.000117148	0.0000000E+000	0.000000000000000E+000	-1.35274e-08
1	1	0	1	0	0	0	257421	0.0002	-0.066956	0.000199978	0.000427733	0.000427733	0	0.000118815	43	1.38124e-08	0.000000000000000E+000	2574.7	0.000000000000000E+000	257421	0.000000000000000E+000	0.000118815	0.000118815	0.0000000E+000	0.000000000000000E+000	-1.33897e-08
1	1	0	1	0	0	0	257451	0.0002	-0.0658983	0.000199994	0.000433733	0.000433733	0	0.000120481	43	1.39225e-08	0.000000000000000E+000	2594.29	0.000000000000000E+000	257451	0.000000000000000E+000	0.000120481	0.000120481	0.0000000E+000	0.000000000000000E+000	-1.31792e-08
1	1	0	1	0	0	0	257481	0.0002	-0.0659021	0.000199978	0.000439732	0.000439732	0	0.000122148	43	1.40322e-08	0.000000000000000E+000	2630.24	0.000000000000000E+000	257481	0.000000000000000E+000	0.000122148	0.000122148	0.0000000E+000	0.000000000000000E+000	-1.3179e-08
1	1	0	1	0	0	0	257511	0.0002	-0.0646726	0.000200005	0.000445732	0.000445732	0	0.000123815	43	1.414e-08	0.000000000000000E+000	2646.66	0.000000000000000E+000	257511	0.000000000000000E+000	0.000123815	0.000123815	0.0000000E+000	0.000000000000000E+000	-1.29348e-08
1	1	0	1	0	0	0	257541	0.0002	-0.0642945	0.000199963	0.000451732	0.000451732	0	0.000125481	43	1.42474e-08	0.000000000000000E+000	2676.28	0.000000000000000E+000	257541	0.000000000000000E+000	0.000125481	0.000125481	0.0000000E+000	0.000000000000000E+000	-1.28565e-08
1	1	0	1	0	0	0	257571	0.0002	-0.064012	0.00019999	0.000457732	0.000457732	0	0.000127148	43	1.43547e-08	0.000000000000000E+000	2707.29	0.000000000000000E+000	257571	0.000000000000000E+000	0.000127148	0.000127148	0.0000000E+000	0.000000000000000E+000	-1.28017e-08
1	1	0	1	0	0	0	257601	0.0002	-0.063947	0.000200024	0.000463731	0.000463731	0	0.000128814	43	1.44613e-08	0.000000000000000E+000	2741.72	0.000000000000000E+000	257601	0.000000000000000E+000	0.000128814	0.000128814	0.0000000E+000	0.000000000000000E+000	-1.2791e-08
1	1	0	1	0	0	0	257631	0.0002	-0.0621065	0.000200013	0.000469731	0.000469731	0	0.000130481	43	1.45657e-08	0.000000000000000E+000	2747.3	0.000000000000000E+000	257631	0.000000000000000E+000	0.000130481	0.000130481	0.0000000E+000	0.000000000000000E+000	-1.24221e-08
1	1	0	1	0	0	0	257661	0.0002	-0.0617934	0.000199959	0.000475731	0.000475731	0	0.000132148	43	1.46698e-08	0.000000000000000E+000	2777.31	0.000000000000000E+000	257661	0.000000000000000E+000	0.000132148	0.000132148	0.0000000E+000	0.000000000000000E+000	-1.23562e-08
1	1	0	1	0	0	0	257691	0.0002	-0.0609075	0.000200013	0.000481731	0.000481731	0	0.000133814	43	1.47717e-08	0.000000000000000E+000	2797.86	0.000000000000000E+000	257691	0.000000000000000E+000	0.000133814	0.000133814	0.0000000E+000	0.000000000000000E+000	-1.21823e-08
1	1	0	1	0	0	0	257721	0.0002	-0.0609572	0.000199971	0.00048773	0.00048773	0	0.000135481	43	1.48728e-08	0.000000000000000E+000	2833.52	0.000000000000000E+000	257721	0.000000000000000E+000	0.000135481	0.000135481	0.0000000E+000	0.000000000000000E+000	-1.21897e-08
1	1	0	1	0	0	0	257751	0.0002	-0.0593153	0.000199994	0.00049373	0.00049373	0	0.000137147	43	1.49717e-08	0.000000000000000E+000	2841.28	0.000000000000000E+000	257751	0.000000000000000E+000	0.000137147	0.000137147	0.0000000E+000	0.000000000000000E+000	-1.18627e-08
1	1	0	1	0	0	0	257781	0.0002	-0.057681	0.000200005	0.000499729	0.000499729	0	0.000138814	43	1.50697e-08	0.000000000000000E+000	2849.01	0.000000000000000E+000	257781	0.000000000000000E+000	0.000138814	0.000138814	0.0000000E+000	0.000000000000000E+000	-1.15365e-08
1	1	0	1	0	0	0	257811	0.0002	-0.0575168	0.00019994	0.000505728	0.000505728	0	0.00014048	43	1.5166e-08	0.000000000000000E+000	2880.51	0.000000000000000E+000	257811	0.000000000000000E+000	0.00014048	0.00014048	0.0000000E+000	0.000000000000000E+000	-1.14999e-08
1	1	0	1	0	0	0	257841	0.0002	-0.0569134	0.000199975	0.000511728	0.000511728	0	0.000142147	43	1.52619e-08	0.000000000000000E+000	2904.7	0.000000000000000E+000	257841	0.000000000000000E+000	0.000142147	0.000142147	0.0000000E+000	0.000000000000000E+000	-1.13812e-08
1	1	0	1	0	0	0	257871	0.0002	-0.0558557	0.000199948	0.000517727	0.000517727	0	0.000143813	43	1.53561e-08	0.000000000000000E+000	2921.21	0.000000000000000E+000	257871	0.000000000000000E+000	0.000143813	0.000143813	0.0000000E+000	0.000000000000000E+000	-1.11682e-08
1	1	0	1	0	0	0	257901	0.0002	-0.055199	0.000199967	0.000523726	0.000523726	0	0.000145479	43	1.54489e-08	0.000000000000000E+000	2944.15	0.000000000000000E+000	257901	0.000000000000000E+000	0.000145479	0.000145479	0.0000000E+000	0.000000000000000E+000	-1.1038e-08
1	1	0	1	0	0	0	257931	0.0002	-0.0555426	0.00019999	0.000529725	0.000529725	0	0.000147146	43	1.55411e-08	0.000000000000000E+000	2983.64	0.000000000000000E+000	257931	0.000000000000000E+000	0.000147146	0.000147146	0.0000000E+000	0.000000000000000E+000	-1.1108e-08
1	1	0	1	0	0	0	257961	0.0002	-0.0542825	0.000199997	0.000535724	0.000535724	0	0.000148812	43	1.56317e-08	0.000000000000000E+000	2996.17	0.000000000000000E+000	257961	0.000000000000000E+000	0.000148812	0.000148812	0.0000000E+000	0.000000000000000E+000	-1.08564e-08
1	1	0	1	0	0	0	257991	0.0002	-0.0536868	0.000199986	0.000541724	0.000541724	0	0.000150479	43	1.57211e-08	0.000000000000000E+000	3019.66	0.000000000000000E+000	257991	0.000000000000000E+000	0.000150479	0.000150479	0.0000000E+000	0.000000000000000E+000	-1.07366e-08
1	1	0	1	0	0	0	258021	0.0002	-0.0524726	0.000199963	0.000547723	0.000547723	0	0.000152145	43	1.58093e-08	0.000000000000000E+000	3032.58	0.000000000000000E+000	258021	0.000000000000000E+000	0.000152145	0.000152145	0.0000000E+000	0.000000000000000E+000	-1.04926e-08
1	1	0	1	0	0	0	258051	0.0002	-0.0518807	0.00019994	0.000553722	0.000553722	0	0.000153812	43	1.5896e-08	0.000000000000000E+000	3055.77	0.000000000000000E+000	258051	0.000000000000000E+000	0.000153812	0.000153812	0.0000000E+000	0.000000000000000E+000	-1.0373e-08
1	1	0	1	0	0	0	258081	0.0002	-0.0521862	0.000199929	0.00055972	0.00055972	0	0.000155478	43	1.59828e-08	0.000000000000000E+000	3094.09	0.000000000000000E+000	258081	0.000000000000000E+000	0.000155478	0.000155478	0.0000000E+000	0.000000000000000E+000	-1.04335e-08
1	1	0	1	0	0	0	258111	0.0002	-0.0510407	0.00019994	0.000565719	0.000565719	0	0.000157144	43	1.6068e-08	0.000000000000000E+000	3107.58	0.000000000000000E+000	258111	0.000000000000000E+000	0.000157144	0.000157144	0.0000000E+000	0.000000000000000E+000	-1.02051e-08
1	1	0	1	0	0	0	258141	0.0002	-0.0508765	0.000199929	0.000571718	0.000571718	0	0.000158811	43	1.61525e-08	0.000000000000000E+000	3137.7	0.000000000000000E+000	258141	0.000000000000000E+000	0.000158811	0.000158811	0.0000000E+000	0.000000000000000E+000	-1.01717e-08
1	1	0	1	0	0	0	258171	0.0002	-0.049498	0.000199997	0.000577717	0.000577717	0	0.000160477	43	1.62353e-08	0.000000000000000E+000	3146.82	0.000000000000000E+000	258171	0.000000000000000E+000	0.000160477	0.000160477	0.0000000E+000	0.000000000000000E+000	-9.89947e-09
1	1	0	1	0	0	0	258201	0.0002	-0.0493109	0.000199879	0.000583715	0.000583715	0	0.000162143	43	1.63174e-08	0.000000000000000E+000	3176.25	0.000000000000000E+000	258201	0.000000000000000E+000	0.000162143	0.000162143	0.0000000E+000	0.000000000000000E+000	-9.85621e-09
1	1	0	1	0	0	0	258231	0.0002	-0.0485281	0.000199929	0.000589713	0.000589713	0	0.000163809	43	1.63984e-08	0.000000000000000E+000	3195.28	0.000000000000000E+000	258231	0.000000000000000E+000	0.000163809	0.000163809	0.0000000E+000	0.000000000000000E+000	-9.70216e-09
1	1	0	1	0	0	0	258261	0.0002	-0.0480699	0.000199978	0.000595712	0.000595712	0	0.000165476	43	1.64791e-08	0.000000000000000E+000	3219.79	0.000000000000000E+000	258261	0.000000000000000E+000	0.000165476	0.000165476	0.0000000E+000	0.000000000000000E+000	-9.61294e-09
1	1	0	1	0	0	0	258291	0.0002	-0.0470886	0.000199967	0.00060171	0.00060171	0	0.000167142	43	1.65577e-08	0.000000000000000E+000	3235.05	0.000000000000000E+000	258291	0.000000000000000E+000	0.000167142	0.000167142	0.0000000E+000	0.000000000000000E+000	-9.41615e-09
1	1	0	1	0	0	0	258321	0.0002	-0.0463821	0.000199963	0.000607709	0.000607709	0	0.000168808	43	1.66349e-08	0.000000000000000E+000	3254.94	0.000000000000000E+000	258321	0.000000000000000E+000	0.000168808	0.000168808	0.0000000E+000	0.000000000000000E+000	-9.27471e-09
1	1	0	1	0	0	0	258351	0.0002	-0.0472107	0.000199978	0.000613708	0.000613708	0	0.000170475	43	1.67134e-08	0.000000000000000E+000	3301.73	0.000000000000000E+000	258351	0.000000000000000E+000	0.000170475	0.000170475	0.0000000E+000	0.000000000000000E+000	-9.44113e-09
1	1	0	1	0	0	0	258381	0.0002	-0.0472413	0.000199986	0.000619707	0.000619707	0	0.000172141	43	1.67917e-08	0.000000000000000E+000	3334.55	0.000000000000000E+000	258381	0.000000000000000E+000	0.000172141	0.000172141	0.0000000E+000	0.000000000000000E+000	-9.4476e-09
1	1	0	1	0	0	0	258411	0.0002	-0.0464012	0.000200024	0.000625706	0.000625706	0	0.000173807	43	1.6869e-08	0.000000000000000E+000	3351.68	0.000000000000000E+000	258411	0.000000000000000E+000	0.000173807	0.000173807	0.0000000E+000	0.000000000000000E+000	-9.28137e-09
1	1	0	1	0	0	0	258441	0.0002	-0.0461378	0.000199959	0.000631706	0.000631706	0	0.000175474	43	1.69458e-08	0.000000000000000E+000	3379.05	0.000000000000000E+000	258441	0.000000000000000E+000	0.000175474	0.000175474	0.0000000E+000	0.000000000000000E+000	-9.22567e-09
1	1	0	1	0	0	0	258471	0.0002	-0.0453282	0.000199959	0.000637705	0.000637705	0	0.00017714	43	1.70218e-08	0.000000000000000E+000	3396.43	0.000000000000000E+000	258471	0.000000000000000E+000	0.00017714	0.00017714	0.0000000E+000	0.000000000000000E+000	-9.0638e-09
1	1	0	1	0	0	0	258501	0.0002	-0.0448662	0.000199944	0.000643704	0.000643704	0	0.000178807	43	1.70976e-08	0.000000000000000E+000	3419.96	0.000000000000000E+000	258501	0.000000000000000E+000	0.000178807	0.000178807	0.0000000E+000	0.000000000000000E+000	-8.97073e-09
1	1	0	1	0	0	0	258531	0.0002	-0.0443431	0.000199948	0.000649703	0.000649703	0	0.000180473	43	1.71722e-08	0.000000000000000E+000	3442.27	0.000000000000000E+000	258531	0.000000000000000E+000	0.000180473	0.000180473	0.0000000E+000	0.000000000000000E+000	-8.8663e-09
1	1	0	1	0	0	0	258561	0.0002	-0.0435679	0.000199913	0.000655702	0.000655702	0	0.000182139	43	1.72453e-08	0.000000000000000E+000	3459.84	0.000000000000000E+000	258561	0.000000000000000E+000	0.000182139	0.000182139	0.0000000E+000	0.000000000000000E+000	-8.70981e-09
1	1	0	1	0	0	0	258591	0.0002	-0.0435679	0.000199982	0.000661701	0.000661701	0	0.000183806	43	1.73173e-08	0.000000000000000E+000	3491.5	0.000000000000000E+000	258591	0.000000000000000E+000	0.000183806	0.000183806	0.0000000E+000	0.000000000000000E+000	-8.71281e-09
1	1	0	1	0	0	0	258621	0.0002	-0.0429341	0.000199971	0.000667701	0.000667701	0	0.000185472	43	1.73887e-08	0.000000000000000E+000	3511.41	0.000000000000000E+000	258621	0.000000000000000E+000	0.000185472	0.000185472	0.0000000E+000	0.000000000000000E+000	-8.58556e-09
1	1	0	1	0	0	0	258651	0.0002	-0.0416014	0.000199982	0.000673701	0.000673701	0	0.000187139	43	1.74593e-08	0.000000000000000E+000	3518.31	0.000000000000000E+000	258651	0.000000000000000E+000	0.000187139	0.000187139	0.0000000E+000	0.000000000000000E+000	-8.31954e-09
1	1	0	1	0	0	0	258681	0.0002	-0.0400473	0.000199948	0.0006797	0.0006797	0	0.000188806	43	1.75274e-08	0.000000000000000E+000	3521.06	0.000000000000000E+000	258681	0.000000000000000E+000	0.000188806	0.000188806	0.0000000E+000	0.000000000000000E+000	-8.00737e-09
1	1	0	1	0	0	0	258711	0.0002	-0.0394516	0.000199975	0.000685699	0.000685699	0	0.000190472	43	1.75941e-08	0.000000000000000E+000	3541.21	0.000000000000000E+000	258711	0.000000000000000E+000	0.000190472	0.000190472	0.0000000E+000	0.000000000000000E+000	-7.88932e-09
1	1	0	1	0	0	0	258741	0.0002	-0.0392798	0.000199944	0.000691698	0.000691698	0	0.000192138	43	1.76597e-08	0.000000000000000E+000	3569.02	0.000000000000000E+000	258741	0.000000000000000E+000	0.000192138	0.000192138	0.0000000E+000	0.000000000000000E+000	-7.85376e-09
1	1	0	1	0	0	0	258771	0.0002	-0.0380694	0.000199944	0.000697697	0.000697697	0	0.000193805	43	1.77254e-08	0.000000000000000E+000	3577.63	0.000000000000000E+000	258771	0.000000000000000E+000	0.000193805	0.000193805	0.0000000E+000	0.000000000000000E+000	-7.61174e-09
1	1	0	1	0	0	0	258801	0.0002	-0.0381075	0.000199948	0.000703696	0.000703696	0	0.000195471	43	1.77897e-08	0.000000000000000E+000	3609.1	0.000000000000000E+000	258801	0.000000000000000E+000	0.000195471	0.000195471	0.0000000E+000	0.000000000000000E+000	-7.61952e-09
1	1	0	1	0	0	0	258831	0.0002	-0.037909	0.000199959	0.000709695	0.000709695	0	0.000197138	43	1.78529e-08	0.000000000000000E+000	3636.17	0.000000000000000E+000	258831	0.000000000000000E+000	0.000197138	0.000197138	0.0000000E+000	0.000000000000000E+000	-7.58025e-09
1	1	0	1	0	0	0	258861	0.0002	-0.0370651	0.000199978	0.000715694	0.000715694	0	0.000198804	43	1.79148e-08	0.000000000000000E+000	3651.12	0.000000000000000E+000	258861	0.000000000000000E+000	0.000198804	0.000198804	0.0000000E+000	0.000000000000000E+000	-7.41222e-09
1	1	0	1	0	0	0	258891	0.0002	-0.0369124	0.000199997	0.000721693	0.000721693	0	0.00020047	43	1.79757e-08	0.000000000000000E+000	3678.85	0.000000000000000E+000	258891	0.000000000000000E+000	0.00020047	0.00020047	0.0000000E+000	0.000000000000000E+000	-7.38238e-09
1	1	0	1	0	0	0	258921	0.0002	-0.0361563	0.000199997	0.000727692	0.000727692	0	0.000202137	43	1.80362e-08	0.000000000000000E+000	3695.19	0.000000000000000E+000	258921	0.000000000000000E+000	0.000202137	0.000202137	0.0000000E+000	0.000000000000000E+000	-7.23117e-09
1	1	0	1	0	0	0	258951	0.0002	-0.0365687	0.000199986	0.000733691	0.000733691	0	0.000203803	43	1.80964e-08	0.000000000000000E+000	3733.48	0.000000000000000E+000	258951	0.000000000000000E+000	0.000203803	0.000203803	0.0000000E+000	0.000000000000000E+000	-7.31323e-09
1	1	0	1	0	0	0	258981	0.0002	-0.0363931	0.000199967	0.000739691	0.000739691	0	0.00020547	43	1.81567e-08	0.000000000000000E+000	3760.64	0.000000000000000E+000	258981	0.000000000000000E+000	0.00020547	0.00020547	0.0000000E+000	0.000000000000000E+000	-7.2774e-09
1	1	0	1	0	0	0	259011	0.0002	-0.035763	0.000199963	0.00074569	0.00074569	0	0.000207136	43	1.82156e-08	0.000000000000000E+000	3779.04	0.000000000000000E+000	259011	0.000000000000000E+000	0.000207136	0.000207136	0.0000000E+000	0.000000000000000E+000	-7.15128e-09
1	1	0	1	0	0	0	259041	0.0002	-0.0332428	0.000199982	0.00075169	0.00075169	0	0.000208803	43	1.82724e-08	0.000000000000000E+000	3761.4	0.000000000000000E+000	259041	0.000000000000000E+000	0.000208803	0.000208803	0.0000000E+000	0.000000000000000E+000	-6.64797e-09
1	1	0	1	0	0	0	259071	0.0002	-0.0329984	0.000199986	0.000757689	0.000757689	0	0.000210469	43	1.83277e-08	0.000000000000000E+000	3786.79	0.000000000000000E+000	259071	0.000000000000000E+000	0.000210469	0.000210469	0.0000000E+000	0.000000000000000E+000	-6.59923e-09
1	1	0	1	0	0	0	259101	0.0002	-0.033892	0.000199971	0.000763689	0.000763689	0	0.000212136	43	1.83832e-08	0.000000000000000E+000	3833.9	0.000000000000000E+000	259101	0.000000000000000E+000	0.000212136	0.000212136	0.0000000E+000	0.000000000000000E+000	-6.7774e-09
1	1	0	1	0	0	0	259131	0.0002	-0.0321278	0.000199975	0.000769689	0.000769689	0	0.000213802	43	1.84371e-08	0.000000000000000E+000	3830.1	0.000000000000000E+000	259131	0.000000000000000E+000	0.000213802	0.000213802	0.0000000E+000	0.000000000000000E+000	-6.42475e-09
1	1	0	1	0	0	0	259161	0.0002	-0.0320362	0.000199997	0.000775688	0.000775688	0	0.000215469	43	1.84907e-08	0.000000000000000E+000	3858.19	0.000000000000000E+000	259161	0.000000000000000E+000	0.000215469	0.000215469	0.0000000E+000	0.000000000000000E+000	-6.40716e-09
1	1	0	1	0	0	0	259191	0.0002	-0.0306845	0.000199978	0.000781687	0.000781687	0	0.000217135	43	1.85424e-08	0.000000000000000E+000	3862.07	0.000000000000000E+000	259191	0.000000000000000E+000	0.000217135	0.000217135	0.0000000E+000	0.000000000000000E+000	-6.13623e-09
1	1	0	1	0	0	0	259221	0.0002	-0.0301002	0.000199982	0.000787687	0.000787687	0	0.000218802	43	1.85932e-08	0.000000000000000E+000	3880.51	0.000000000000000E+000	259221	0.000000000000000E+000	0.000218802	0.000218802	0.0000000E+000	0.000000000000000E+000	-6.01951e-09
1	1	0	1	0	0	0	259251	0.0002	-0.0293709	0.000199982	0.000793686	0.000793686	0	0.000220468	43	1.86435e-08	0.000000000000000E+000	3896.06	0.000000000000000E+000	259251	0.000000000000000E+000	0.000220468	0.000220468	0.0000000E+000	0.000000000000000E+000	-5.87366e-09
1	1	0	1	0	0	0	259281	0.0002	-0.0289662	0.000199932	0.000799685	0.000799685	0	0.000222135	43	1.86933e-08	0.000000000000000E+000	3917.73	0.000000000000000E+000	259281	0.000000000000000E+000	0.000222135	0.000222135	0.0000000E+000	0.000000000000000E+000	-5.79127e-09
1	1	0	1	0	0	0	259311	0.0002	-0.027687	0.000199936	0.000805685	0.000805685	0	0.000223801	43	1.87405e-08	0.000000000000000E+000	3922.54	0.000000000000000E+000	259311	0.000000000000000E+000	0.000223801	0.000223801	0.0000000E+000	0.000000000000000E+000	-5.53563e-09
1	1	0	1	0	0	0	259341	0.0002	-0.0276755	0.000199978	0.000811684	0.000811684	0	0.000225468	43	1.87872e-08	0.000000000000000E+000	3951.53	0.000000000000000E+000	259341	0.000000000000000E+000	0.000225468	0.000225468	0.0000000E+000	0.000000000000000E+000	-5.5345e-09
1	1	0	1	0	0	0	259371	0.0002	-0.0283399	0.000199982	0.000817683	0.000817683	0	0.000227134	43	1.88348e-08	0.000000000000000E+000	3993.65	0.000000000000000E+000	259371	0.000000000000000E+000	0.000227134	0.000227134	0.0000000E+000	0.000000000000000E+000	-5.66748e-09
1	1	0	1	0	0	0	259401	0.0002	-0.0266369	0.000199978	0.000823682	0.000823682	0	0.000228801	43	1.8879e-08	0.000000000000000E+000	3989.76	0.000000000000000E+000	259401	0.000000000000000E+000	0.000228801	0.000228801	0.0000000E+000	0.000000000000000E+000	-5.3268e-09
1	1	0	1	0	0	0	259431	0.0002	-0.026087	0.000199963	0.000829681	0.000829681	0	0.000230467	43	1.89232e-08	0.000000000000000E+000	4008.15	0.000000000000000E+000	259431	0.000000000000000E+000	0.000230467	0.000230467	0.0000000E+000	0.000000000000000E+000	-5.21644e-09
1	1	0	1	0	0	0	259461	0.0002	-0.0261176	0.000199978	0.00083568	0.00083568	0	0.000232133	43	1.8967e-08	0.000000000000000E+000	4037.72	0.000000000000000E+000	259461	0.000000000000000E+000	0.000232133	0.000232133	0.0000000E+000	0.000000000000000E+000	-5.22295e-09
1	1	0	1	0	0	0	259491	0.0002	-0.026255	0.000199955	0.000841679	0.000841679	0	0.0002338	43	1.90115e-08	0.000000000000000E+000	4069.41	0.000000000000000E+000	259491	0.000000000000000E+000	0.0002338	0.0002338	0.0000000E+000	0.000000000000000E+000	-5.24984e-09
1	1	0	1	0	0	0	259521	0.0002	-0.0251935	0.00020002	0.000847678	0.000847678	0	0.000235466	43	1.90544e-08	0.000000000000000E+000	4077.49	0.000000000000000E+000	259521	0.000000000000000E+000	0.000235466	0.000235466	0.0000000E+000	0.000000000000000E+000	-5.03922e-09
1	1	0	1	0	0	0	259551	0.0002	-0.0251973	0.000199971	0.000853677	0.000853677	0	0.000237132	43	1.90959e-08	0.000000000000000E+000	4106.42	0.000000000000000E+000	259551	0.000000000000000E+000	0.000237132	0.000237132	0.0000000E+000	0.000000000000000E+000	-5.03873e-09
1	1	0	1	0	0	0	259581	0.0002	-0.0241358	0.000199929	0.000859676	0.000859676	0	0.000238799	43	1.91372e-08	0.000000000000000E+000	4114.27	0.000000000000000E+000	259581	0.000000000000000E+000	0.000238799	0.000238799	0.0000000E+000	0.000000000000000E+000	-4.82544e-09
1	1	0	1	0	0	0	259611	0.0002	-0.0243611	0.000199978	0.000865674	0.000865674	0	0.000240465	43	1.91779e-08	0.000000000000000E+000	4147.45	0.000000000000000E+000	259611	0.000000000000000E+000	0.000240465	0.000240465	0.0000000E+000	0.000000000000000E+000	-4.87169e-09
1	1	0	1	0	0	0	259641	0.0002	-0.0236203	0.000199994	0.000871673	0.000871673	0	0.000242131	43	1.92175e-08	0.000000000000000E+000	4161.42	0.000000000000000E+000	259641	0.000000000000000E+000	0.000242131	0.000242131	0.0000000E+000	0.000000000000000E+000	-4.72391e-09
1	1	0	1	0	0	0	259671	0.0002	-0.0228032	0.000199997	0.000877672	0.000877672	0	0.000243798	43	1.92554e-08	0.000000000000000E+000	4173.78	0.000000000000000E+000	259671	0.000000000000000E+000	0.000243798	0.000243798	0.0000000E+000	0.000000000000000E+000	-4.56057e-09
1	1	0	1	0	0	0	259701	0.0002	-0.0219364	0.000199971	0.000883671	0.000883671	0	0.000245464	43	1.92926e-08	0.000000000000000E+000	4185.05	0.000000000000000E+000	259701	0.000000000000000E+000	0.000245464	0.000245464	0.0000000E+000	0.000000000000000E+000	-4.38663e-09
1	1	0	1	0	0	0	259731	0.0002	-0.0214782	0.000199971	0.00088967	0.00088967	0	0.000247131	43	1.93292e-08	0.000000000000000E+000	4204.34	0.000000000000000E+000	259731	0.000000000000000E+000	0.000247131	0.000247131	0.0000000E+000	0.000000000000000E+000	-4.295e-09
1	1	0	1	0	0	0	259761	0.0002	-0.0200157	0.000199944	0.000895669	0.000895669	0	0.000248797	43	1.93636e-08	0.000000000000000E+000	4203.64	0.000000000000000E+000	259761	0.000000000000000E+000	0.000248797	0.000248797	0.0000000E+000	0.000000000000000E+000	-4.00202e-09
1	1	0	1	0	0	0	259791	0.0002	-0.0200386	0.000199982	0.000901668	0.000901668	0	0.000250463	43	1.93969e-08	0.000000000000000E+000	4232.25	0.000000000000000E+000	259791	0.000000000000000E+000	0.000250463	0.000250463	0.0000000E+000	0.000000000000000E+000	-4.00736e-09
1	1	0	1	0	0	0	259821	0.0002	-0.0198744	0.000199982	0.000907668	0.000907668	0	0.00025213	43	1.94303e-08	0.000000000000000E+000	4257.13	0.000000000000000E+000	259821	0.000000000000000E+000	0.00025213	0.00025213	0.0000000E+000	0.000000000000000E+000	-3.97453e-09
1	1	0	1	0	0	0	259851	0.0002	-0.0181714	0.000199955	0.000913667	0.000913667	0	0.000253796	43	1.94618e-08	0.000000000000000E+000	4251.31	0.000000000000000E+000	259851	0.000000000000000E+000	0.000253796	0.000253796	0.0000000E+000	0.000000000000000E+000	-3.63346e-09
1	1	0	1	0	0	0	259881	0.0002	-0.0177819	0.000199948	0.000919665	0.000919665	0	0.000255463	43	1.94918e-08	0.000000000000000E+000	4271.48	0.000000000000000E+000	259881	0.000000000000000E+000	0.000255463	0.000255463	0.0000000E+000	0.000000000000000E+000	-3.55545e-09
1	1	0	1	0	0	0	259911	0.0002	-0.017507	0.000199955	0.000925665	0.000925665	0	0.000257129	43	1.95207e-08	0.000000000000000E+000	4293.86	0.000000000000000E+000	259911	0.000000000000000E+000	0.000257129	0.000257129	0.0000000E+000	0.000000000000000E+000	-3.50061e-09
1	1	0	1	0	0	0	259941	0.0002	-0.0169456	0.000199963	0.000931663	0.000931663	0	0.000258795	43	1.95489e-08	0.000000000000000E+000	4310.46	0.000000000000000E+000	259941	0.000000000000000E+000	0.000258795	0.000258795	0.0000000E+000	0.000000000000000E+000	-3.3885e-09
1	1	0	1	0	0	0	259971	0.0002	-0.0165791	0.00019994	0.000937662	0.000937662	0	0.000260462	43	1.95768e-08	0.000000000000000E+000	4330.87	0.000000000000000E+000	259971	0.000000000000000E+000	0.000260462	0.000260462	0.0000000E+000	0.000000000000000E+000	-3.31482e-09
1	1	0	1	0	0	0	260001	0.0002	-0.0156932	0.000199955	0.000943661	0.000943661	0	0.000262128	43	1.96031e-08	0.000000000000000E+000	4340.82	0.000000000000000E+000	260001	0.000000000000000E+000	0.000262128	0.000262128	0.0000000E+000	0.000000000000000E+000	-3.13794e-09
1	1	0	1	0	0	0	260031	0.0002	-0.0173237	0.000199952	0.000949659	0.000949659	0	0.000263794	43	1.96312e-08	0.000000000000000E+000	4401.42	0.000000000000000E+000	260031	0.000000000000000E+000	0.000263794	0.000263794	0.0000000E+000	0.000000000000000E+000	-3.4639e-09
1	1	0	1	0	0	0	260061	0.0002	-0.0165562	0.000199978	0.000955658	0.000955658	0	0.000265461	43	1.96592e-08	0.000000000000000E+000	4413.52	0.000000000000000E+000	260061	0.000000000000000E+000	0.000265461	0.000265461	0.0000000E+000	0.000000000000000E+000	-3.31087e-09
1	1	0	1	0	0	0	260091	0.0002	-0.015025	0.000199959	0.000961657	0.000961657	0	0.000267127	43	1.96847e-08	0.000000000000000E+000	4410.04	0.000000000000000E+000	260091	0.000000000000000E+000	0.000267127	0.000267127	0.0000000E+000	0.000000000000000E+000	-3.00438e-09
1	1	0	1	0	0	0	260121	0.0002	-0.0148493	0.000199902	0.000967656	0.000967656	0	0.000268793	43	1.97092e-08	0.000000000000000E+000	4433.98	0.000000000000000E+000	260121	0.000000000000000E+000	0.000268793	0.000268793	0.0000000E+000	0.000000000000000E+000	-2.96841e-09
1	1	0	1	0	0	0	260151	0.0002	-0.0140207	0.000199929	0.000973654	0.000973654	0	0.00027046	43	1.97338e-08	0.000000000000000E+000	4444.59	0.000000000000000E+000	260151	0.000000000000000E+000	0.00027046	0.00027046	0.0000000E+000	0.000000000000000E+000	-2.80314e-09
1	1	0	1	0	0	0	260181	0.0002	-0.013658	0.000199948	0.000979654	0.000979654	0	0.000272126	43	1.97566e-08	0.000000000000000E+000	4464.59	0.000000000000000E+000	260181	0.000000000000000E+000	0.000272126	0.000272126	0.0000000E+000	0.000000000000000E+000	-2.73088e-09
1	1	0	1	0	0	0	260211	0.0002	-0.013089	0.000199936	0.000985653	0.000985653	0	0.000273792	43	1.97783e-08	0.000000000000000E+000	4480.31	0.000000000000000E+000	260211	0.000000000000000E+000	0.000273792	0.000273792	0.0000000E+000	0.000000000000000E+000	-2.61697e-09
1	1	0	1	0	0	0	260241	0.0002	-0.0128599	0.000199955	0.000991652	0.000991652	0	0.000275459	43	1.97999e-08	0.000000000000000E+000	4502.89	0.000000000000000E+000	260241	0.000000000000000E+000	0.000275459	0.000275459	0.0000000E+000	0.000000000000000E+000	-2.57141e-09
1	1	0	1	0	0	0	260271	0.0002	-0.0122337	0.000199948	0.000997651	0.000997651	0	0.000277125	43	1.98207e-08	0.000000000000000E+000	4517.28	0.000000000000000E+000	260271	0.000000000000000E+000	0.000277125	0.000277125	0.0000000E+000	0.000000000000000E+000	-2.44609e-09
1	1	0	1	0	0	0	260301	0.0002	-0.0120542	0.000199975	0.00100365	0.00100365	0	0.000278792	43	1.98412e-08	0.000000000000000E+000	4540.75	0.000000000000000E+000	260301	0.000000000000000E+000	0.000278792	0.000278792	0.0000000E+000	0.000000000000000E+000	-2.41053e-09
1	1	0	1	0	0	0	260331	0.0002	-0.010607	0.000199971	0.00100965	0.00100965	0	0.000280458	43	1.98593e-08	0.000000000000000E+000	4538.18	0.000000000000000E+000	260331	0.000000000000000E+000	0.000280458	0.000280458	0.0000000E+000	0.000000000000000E+000	-2.12109e-09
1	1	0	1	0	0	0	260361	0.0002	-0.0103703	0.000200013	0.00101565	0.00101565	0	0.000282125	43	1.98773e-08	0.000000000000000E+000	4560.3	0.000000000000000E+000	260361	0.000000000000000E+000	0.000282125	0.000282125	0.0000000E+000	0.000000000000000E+000	-2.07418e-09
1	1	0	1	0	0	0	260391	0.0002	-0.0102939	0.000199963	0.00102165	0.00102165	0	0.000283791	43	1.98949e-08	0.000000000000000E+000	4585.66	0.000000000000000E+000	260391	0.000000000000000E+000	0.000283791	0.000283791	0.0000000E+000	0.000000000000000E+000	-2.0584e-09
1	1	0	1	0	0	0	260421	0.0002	-0.00869778	0.000199971	0.00102765	0.00102765	0	0.000285457	43	1.99104e-08	0.000000000000000E+000	4579.78	0.000000000000000E+000	260421	0.000000000000000E+000	0.000285457	0.000285457	0.0000000E+000	0.000000000000000E+000	-1.7393e-09
1	1	0	1	0	0	0	260451	0.0002	-0.00749114	0.000199967	0.00103365	0.00103365	0	0.000287124	43	1.99236e-08	0.000000000000000E+000	4581.88	0.000000000000000E+000	260451	0.000000000000000E+000	0.000287124	0.000287124	0.0000000E+000	0.000000000000000E+000	-1.49798e-09
1	1	0	1	0	0	0	260481	0.0002	-0.00695274	0.000199955	0.00103964	0.00103964	0	0.00028879	43	1.99364e-08	0.000000000000000E+000	4597.49	0.000000000000000E+000	260481	0.000000000000000E+000	0.00028879	0.00028879	0.0000000E+000	0.000000000000000E+000	-1.39024e-09
1	1	0	1	0	0	0	260511	0.0002	-0.00635706	0.00019999	0.00104564	0.00104564	0	0.000290457	43	1.99468e-08	0.000000000000000E+000	4611.87	0.000000000000000E+000	260511	0.000000000000000E+000	0.000290457	0.000290457	0.0000000E+000	0.000000000000000E+000	-1.27135e-09
1	1	0	1	0	0	0	260541	0.0002	-0.00565829	0.000199967	0.00105164	0.00105164	0	0.000292123	43	1.99565e-08	0.000000000000000E+000	4624.08	0.000000000000000E+000	260541	0.000000000000000E+000	0.000292123	0.000292123	0.0000000E+000	0.000000000000000E+000	-1.13147e-09
1	1	0	1	0	0	0	260571	0.0002	-0.00497096	0.000199982	0.00105764	0.00105764	0	0.000293789	43	1.99648e-08	0.000000000000000E+000	4636.45	0.000000000000000E+000	260571	0.000000000000000E+000	0.000293789	0.000293789	0.0000000E+000	0.000000000000000E+000	-9.94104e-10
1	1	0	1	0	0	0	260601	0.0002	-0.00463876	0.000199971	0.00106364	0.00106364	0	0.000295456	43	1.99729e-08	0.000000000000000E+000	4655.96	0.000000000000000E+000	260601	0.000000000000000E+000	0.000295456	0.000295456	0.0000000E+000	0.000000000000000E+000	-9.27616e-10
1	1	0	1	0	0	0	260631	0.0002	-0.00453948	0.000199952	0.00106964	0.00106964	0	0.000297122	43	1.99797e-08	0.000000000000000E+000	4680.19	0.000000000000000E+000	260631	0.000000000000000E+000	0.000297122	0.000297122	0.0000000E+000	0.000000000000000E+000	-9.07676e-10
1	1	0	1	0	0	0	260661	0.0002	-0.00354286	0.000199967	0.00107564	0.00107564	0	0.000298789	43	1.99863e-08	0.000000000000000E+000	4686	0.000000000000000E+000	260661	0.000000000000000E+000	0.000298789	0.000298789	0.0000000E+000	0.000000000000000E+000	-7.08455e-10
1	1	0	1	0	0	0	260691	0.0002	-0.00285936	0.000199967	0.00108164	0.00108164	0	0.000300455	43	1.99911e-08	0.000000000000000E+000	4698.15	0.000000000000000E+000	260691	0.000000000000000E+000	0.000300455	0.000300455	0.0000000E+000	0.000000000000000E+000	-5.71777e-10
1	1	0	1	0	0	0	260721	0.0002	-0.00306173	0.000199925	0.00108764	0.00108764	0	0.000302121	43	1.99966e-08	0.000000000000000E+000	4728.36	0.000000000000000E+000	260721	0.000000000000000E+000	0.000302121	0.000302121	0.0000000E+000	0.000000000000000E+000	-6.12117e-10
1	1	0	1	0	0	0	260751	0.0002	-0.00257297	0.00019999	0.00109364	0.00109364	0	0.000303788	43	2.00008e-08	0.000000000000000E+000	4744.36	0.000000000000000E+000	260751	0.000000000000000E+000	0.000303788	0.000303788	0.0000000E+000	0.000000000000000E+000	-5.14568e-10
1	1	0	1	0	0	0	260781	0.0002	-0.00173291	0.000200009	0.00109964	0.00109964	0	0.000305454	43	2.00042e-08	0.000000000000000E+000	4753.07	0.000000000000000E+000	260781	0.000000000000000E+000	0.000305454	0.000305454	0.0000000E+000	0.000000000000000E+000	-3.46598e-10
1	1	0	1	0	0	0	260811	0.0002	-0.00124033	0.000199997	0.00110563	0.00110563	0	0.000307121	43	2.00061e-08	0.000000000000000E+000	4768.85	0.000000000000000E+000	260811	0.000000000000000E+000	0.000307121	0.000307121	0.0000000E+000	0.000000000000000E+000	-2.48063e-10
1	1	0	1	0	0	0	260841	0.0002	-0.000388814	0.000199982	0.00111163	0.00111163	0	0.000308787	43	2.00077e-08	0.000000000000000E+000	4777.18	0.000000000000000E+000	260841	0.000000000000000E+000	0.000308787	0.000308787	0.0000000E+000	0.000000000000000E+000	-7.77559e-11
1	1	0	1	0	0	0	260848	0.0002	-6.04269e-05	0.000199982	0.00111298	0.00111298	0	0.000309161	43	2.00077e-08	0.000000000000000E+000	4776.22	0.000000000000000E+000	260848	0.000000000000000E+000	0.000309161	0.000309161	0.0000000E+000	0.000000000000000E+000	-1.20843e-11