File: data_dir/600_B_immertest4/600_B_02_CV_C03.mpt
EC-Lab ASCII FILE
Nb header lines : 62

Cyclic Voltammetry

Run on channel : 3 (SN 13150)
User :
Electrode connection : standard
Potential control : Ewe
Ewe ctrl range : min = -1.00 V, max = 1.00 V
Ewe,I filtering : 5 Hz
Safety Limits :
	Do not start on E overload
Channel : Floating
Acquisition started on : 07/01/2024 16:51:05.709
Loaded Setting File :  C:\Users\mAtsuhitA\Desktop\Oyafuso\20240624_???????4\1540_A.mps
Saved on :
	File : 600_B_02_CV_C03.mpr
	Directory : C:\Users\mAtsuhitA\Desktop\Oyafuso\20240624_???????4\600_B\
	Host : 192.109.209.100
Device : VSP-300 (SN 0834)
Address : 192.109.209.128
EC-Lab for windows v11.50 (software)
Internet server v11.50 (firmware)
Command interpretor v11.50 (firmware)
Electrode material :
Initial state :
Electrolyte :
Comments :
Cable : standard
Electrode surface area : 0.001 cm2
Characteristic mass : 0.001 g
Equivalent Weight : 0.000 g/eq.
Density : 0.000 g/cm3
Volume (V) : 0.001 cm3
Text export
   Mode : Standard
   Time format : Elapsed
Cycle Definition : Charge/Discharge alternance
Ei (V)              0.000
vs.                 Eoc
dE/dt               10.000
dE/dt unit          mV/s
E1 (V)              -0.050
vs.                 Eoc
Step percent        50
N                   10
E range min (V)     -1.000
E range max (V)     1.000
I Range             Auto
I Range min         Unset
I Range max         Unset
I Range init        Unset
Bandwidth           8
E2 (V)              0.000
vs.                 Ref
nc cycles           2
Reverse Scan        1
Ef (V)              0.000
vs.                 Eoc

mode	ox/red	error	control changes	counter inc.	time/s	control/V	Ewe/V	<I>/mA	cycle number	(Q-Qo)/C	I Range	step time/s	P/W
2	1	0	1	0	7200.06	-0.323469	-0.249001	1.82345e-06	1	0.0000000E+000	45	7200.06	-4.54041e-10
2	0	0	1	0	7201.23	-0.335242	-0.334113	-0.000591536	1	-3.19075e-07	43	7201.23	1.9764e-07
2	0	0	1	0	7201.63	-0.339241	-0.33811	-0.000608757	1	-5.58535e-07	43	7201.63	2.05827e-07
2	0	0	1	0	7202.03	-0.34324	-0.342122	-0.000635747	1	-8.05852e-07	43	7202.03	2.17503e-07
2	0	0	1	0	7202.43	-0.34724	-0.346142	-0.00065469	1	-1.06114e-06	43	7202.43	2.26615e-07
2	0	0	1	0	7202.83	-0.351239	-0.350152	-0.000678017	1	-1.32868e-06	43	7202.83	2.37409e-07
2	0	0	1	0	7203.23	-0.355238	-0.354143	-0.000697577	1	-1.60548e-06	43	7203.23	2.47042e-07
2	0	0	1	0	7203.63	-0.359238	-0.358126	-0.000722053	1	-1.88847e-06	43	7203.63	2.58586e-07
2	0	0	1	0	7204.03	-0.363237	-0.362122	-0.000758586	1	-2.18495e-06	43	7204.03	2.747e-07
2	0	0	1	0	7204.43	-0.367236	-0.366099	-0.000799762	1	-2.49618e-06	43	7204.43	2.92792e-07
2	0	0	1	0	7204.83	-0.371235	-0.3701	-0.000807678	1	-2.81683e-06	43	7204.83	2.98922e-07
2	0	0	1	0	7205.18	-0.372185	-0.372769	-0.000830524	1	-3.10456e-06	43	7205.18	3.09594e-07
2	0	0	1	0	7205.58	-0.368186	-0.368795	-0.000764542	1	-3.42037e-06	43	7205.58	2.81959e-07
2	0	0	1	0	7205.98	-0.364187	-0.364797	-0.000727036	1	-3.7172e-06	43	7205.98	2.65221e-07
2	0	0	1	0	7206.38	-0.360187	-0.360805	-0.000693536	1	-4.00215e-06	43	7206.38	2.50231e-07
2	0	0	1	0	7206.78	-0.356188	-0.356837	-0.000671307	1	-4.27498e-06	43	7206.78	2.39547e-07
2	0	0	1	0	7207.18	-0.352189	-0.352834	-0.000644726	1	-4.53769e-06	43	7207.18	2.27482e-07
2	0	0	1	0	7207.58	-0.34819	-0.348837	-0.000619887	1	-4.79109e-06	43	7207.58	2.16239e-07
2	0	0	1	0	7207.98	-0.34419	-0.344832	-0.000591141	1	-5.03267e-06	43	7207.98	2.03844e-07
2	0	0	1	0	7208.38	-0.340191	-0.340863	-0.000560626	1	-5.26482e-06	43	7208.38	1.91096e-07
2	0	0	1	0	7208.78	-0.336192	-0.336853	-0.000550375	1	-5.48777e-06	43	7208.78	1.85396e-07
2	0	0	1	0	7209.18	-0.332192	-0.332851	-0.000517104	1	-5.69964e-06	43	7209.18	1.72119e-07
2	0	0	1	0	7209.58	-0.328193	-0.328838	-0.000496839	1	-5.90304e-06	43	7209.58	1.63379e-07
2	0	0	1	0	7209.98	-0.324194	-0.324849	-0.000468442	1	-6.09582e-06	43	7209.98	1.52173e-07
2	0	0	1	0	7210.38	-0.320195	-0.320854	-0.000445957	1	-6.279e-06	43	7210.38	1.43087e-07
2	0	0	1	0	7210.78	-0.316195	-0.316852	-0.000423573	1	-6.45273e-06	43	7210.78	1.3421e-07
2	0	0	1	0	7211.18	-0.312196	-0.312869	-0.000401068	1	-6.61636e-06	43	7211.18	1.25482e-07
2	0	0	1	0	7211.58	-0.308197	-0.308889	-0.000372052	1	-6.77024e-06	43	7211.58	1.14923e-07
2	0	0	1	0	7211.98	-0.304197	-0.304872	-0.000347101	1	-6.91331e-06	43	7211.98	1.05821e-07
2	0	0	1	0	7212.38	-0.300198	-0.300868	-0.000324272	1	-7.04706e-06	43	7212.38	9.75629e-08
2	0	0	1	0	7212.78	-0.296199	-0.29686	-0.000298005	1	-7.17078e-06	43	7212.78	8.84656e-08
2	0	0	1	0	7213.18	-0.292199	-0.292857	-0.000264874	1	-7.28466e-06	43	7213.18	7.75703e-08
2	0	0	1	0	7213.58	-0.2882	-0.288848	-0.000242685	1	-7.38584e-06	43	7213.58	7.00991e-08
2	0	0	1	0	7213.98	-0.284201	-0.284877	-0.000224431	1	-7.47902e-06	43	7213.98	6.39351e-08
2	0	0	1	0	7214.38	-0.280202	-0.280861	-0.000191773	1	-7.56036e-06	43	7214.38	5.38616e-08
2	0	0	1	0	7214.78	-0.276202	-0.276896	-0.000164904	1	-7.63135e-06	43	7214.78	4.56614e-08
2	0	0	1	0	7215.18	-0.272203	-0.272897	-0.000138958	1	-7.69209e-06	43	7215.18	3.79211e-08
2	0	0	1	0	7215.58	-0.268204	-0.268896	-0.000114233	1	-7.74227e-06	43	7215.58	3.07168e-08
2	0	0	1	0	7215.98	-0.264204	-0.264888	-8.63024e-05	1	-7.78248e-06	43	7215.98	2.28604e-08
2	0	0	1	0	7216.38	-0.260205	-0.260905	-5.8578e-05	1	-7.81132e-06	43	7216.38	1.52833e-08
2	0	0	1	0	7217.18	-0.252207	-0.252888	-2.75048e-06	1	-7.8414e-06	44	7217.18	6.95564e-10
2	1	0	1	0	7218.38	-0.240209	-0.240922	8.25446e-05	1	-7.8053e-06	44	0.35	-1.98868e-08
2	1	0	1	0	7218.98	-0.23421	-0.234921	0.000127707	1	-7.7439e-06	44	0.9499	-3.0001e-08
2	1	0	1	0	7219.58	-0.228211	-0.228924	0.000172621	1	-7.65887e-06	43	1.5498	-3.9517e-08
2	1	0	1	0	7219.98	-0.224212	-0.224937	0.000205423	1	-7.58354e-06	43	1.9498	-4.62073e-08
2	1	0	1	0	7220.38	-0.220212	-0.220943	0.000231417	1	-7.49641e-06	43	2.3496	-5.11299e-08
2	1	0	1	0	7220.78	-0.216213	-0.216935	0.000264468	1	-7.39681e-06	43	2.7496	-5.73725e-08
2	1	0	1	0	7221.18	-0.212214	-0.212926	0.000297014	1	-7.2848e-06	43	3.1496	-6.32419e-08
2	1	0	1	0	7221.58	-0.208214	-0.20895	0.000320178	1	-7.16056e-06	43	3.5494	-6.6901e-08
2	1	0	1	0	7221.98	-0.204215	-0.204939	0.000360943	1	-7.02382e-06	43	3.9494	-7.39714e-08
2	1	0	1	0	7222.38	-0.200216	-0.20095	0.000390601	1	-6.87522e-06	43	4.3494	-7.84912e-08
2	1	0	1	0	7222.78	-0.196217	-0.196971	0.000414642	1	-6.71409e-06	43	4.7492	-8.16726e-08
2	1	0	1	0	7223.18	-0.192217	-0.192999	0.000443887	1	-6.54024e-06	43	5.1492	-8.56697e-08
2	1	0	1	0	7223.58	-0.188218	-0.18898	0.00047826	1	-6.35433e-06	43	5.549	-9.03814e-08
2	1	0	1	0	7223.98	-0.184219	-0.184977	0.000516387	1	-6.15499e-06	43	5.949	-9.55198e-08
2	1	0	1	0	7224.38	-0.180219	-0.180982	0.000549816	1	-5.94073e-06	43	6.349	-9.95068e-08
2	1	0	1	0	7224.78	-0.17622	-0.176962	0.00058028	1	-5.71381e-06	43	6.7488	-1.02687e-07
2	1	0	1	0	7225.18	-0.172221	-0.172989	0.000619347	1	-5.47376e-06	43	7.1488	-1.0714e-07
2	1	0	1	0	7225.58	-0.168222	-0.16898	0.000650487	1	-5.21872e-06	43	7.5488	-1.09919e-07
2	1	0	1	0	7225.98	-0.164222	-0.165002	0.000685438	1	-4.95104e-06	43	7.9486	-1.13098e-07
2	1	0	1	0	7226.38	-0.160223	-0.161032	0.000726089	1	-4.66776e-06	43	8.3486	-1.16924e-07
2	1	0	1	0	7226.78	-0.156224	-0.157015	0.000768315	1	-4.36962e-06	43	8.7486	-1.20637e-07
2	1	0	1	0	7227.18	-0.152224	-0.153011	0.000804951	1	-4.05654e-06	43	9.1484	-1.23167e-07
2	1	0	1	0	7227.58	-0.148225	-0.149038	0.000829753	1	-3.73072e-06	43	9.5484	-1.23665e-07
2	1	0	1	0	7227.98	-0.144226	-0.145069	0.000874844	1	-3.39062e-06	43	9.9484	-1.26912e-07
2	1	0	1	0	7228.38	-0.140227	-0.141048	0.000907459	1	-3.03492e-06	43	10.3482	-1.27995e-07
2	1	0	1	0	7228.78	-0.136227	-0.137057	0.000941199	1	-2.66496e-06	43	10.7482	-1.28998e-07
2	1	0	1	0	7229.18	-0.132228	-0.133044	0.000972825	1	-2.28089e-06	43	11.1481	-1.29429e-07
2	1	0	1	0	7229.58	-0.128229	-0.129055	0.00103074	1	-1.87991e-06	43	11.548	-1.33022e-07
2	1	0	1	0	7229.98	-0.124229	-0.125052	0.001087	1	-1.45732e-06	43	11.948	-1.35931e-07
2	1	0	1	0	7230.78	-0.116231	-0.116983	0.00113664	1	-5.72664e-07	42	12.7478	-1.32968e-07
2	1	0	1	0	7231.18	-0.112232	-0.113001	0.00118526	1	-1.04074e-07	42	13.1478	-1.33935e-07
2	1	0	1	0	7231.58	-0.108232	-0.108994	0.00125029	1	3.86817e-07	42	13.5476	-1.36274e-07
2	1	0	1	0	7231.98	-0.104233	-0.104992	0.00128522	1	8.90959e-07	42	13.9476	-1.34938e-07
2	1	0	1	0	7232.38	-0.100234	-0.100987	0.00131843	1	1.41391e-06	42	14.3476	-1.33144e-07
2	1	0	1	0	7232.78	-0.0962344	-0.0969907	0.00136944	1	1.9516e-06	42	14.7474	-1.32823e-07
2	1	0	1	0	7233.18	-0.0922351	-0.0930123	0.00140319	1	2.50594e-06	42	15.1474	-1.30514e-07
2	1	0	1	0	7233.58	-0.0882358	-0.0889894	0.00145072	1	3.07693e-06	42	15.5474	-1.29099e-07
2	1	0	1	0	7233.98	-0.0842365	-0.0850277	0.00150772	1	3.66711e-06	42	15.9472	-1.28198e-07
2	1	0	1	0	7234.38	-0.0802372	-0.081003	0.00154301	1	4.2771e-06	42	16.3472	-1.24988e-07
2	1	0	1	0	7234.78	-0.0762379	-0.0770198	0.00159289	1	4.90789e-06	42	16.7471	-1.22684e-07
2	1	0	1	0	7235.18	-0.0722386	-0.0730112	0.00165887	1	5.5559e-06	42	17.147	-1.21116e-07
2	1	0	1	0	7235.58	-0.0682393	-0.0690156	0.00170828	1	6.23e-06	42	17.547	-1.17898e-07
2	1	0	1	0	7235.98	-0.0642401	-0.0650277	0.00176329	1	6.92115e-06	42	17.9468	-1.14663e-07
2	1	0	1	0	7236.38	-0.0602408	-0.0610387	0.00180701	1	7.63603e-06	42	18.3468	-1.10298e-07
2	1	0	1	0	7236.78	-0.0562415	-0.0570333	0.00186218	1	8.37006e-06	42	18.7468	-1.06206e-07
2	1	0	1	0	7237.18	-0.0522422	-0.0530331	0.00192077	1	9.12596e-06	42	19.1466	-1.01864e-07
2	1	0	1	0	7237.58	-0.0482429	-0.0490226	0.00195829	1	9.90205e-06	42	19.5466	-9.60005e-08
2	1	0	1	0	7237.98	-0.0442436	-0.0450495	0.00201789	1	1.06993e-05	42	19.9466	-9.09052e-08
2	1	0	1	0	7238.38	-0.0402443	-0.0410499	0.00207983	1	1.15184e-05	42	20.3464	-8.53769e-08
2	1	0	1	0	7238.78	-0.036245	-0.0370753	0.0021516	1	1.23583e-05	42	20.7464	-7.97711e-08
2	1	0	1	0	7239.18	-0.0322458	-0.0330479	0.0021965	1	1.32268e-05	42	21.1464	-7.25896e-08
2	1	0	1	0	7239.58	-0.0282465	-0.0290544	0.00227224	1	1.41224e-05	42	21.5462	-6.60184e-08
2	1	0	1	0	7239.98	-0.0242472	-0.0250669	0.00230579	1	1.50378e-05	42	21.9462	-5.77989e-08
2	1	0	1	0	7240.38	-0.0202486	-0.0210319	0.00236149	1	1.59757e-05	42	22.3461	-4.96665e-08
2	1	0	1	0	7240.78	-0.0162486	-0.0170621	0.00243577	1	1.69379e-05	42	22.746	-4.15595e-08
2	1	0	1	0	7241.18	-0.0122493	-0.0130561	0.00251242	1	1.79316e-05	42	23.146	-3.28025e-08
2	1	0	1	0	7241.58	-0.00825003	-0.00905947	0.00256343	1	1.89453e-05	42	23.5458	-2.32234e-08
2	1	0	1	0	7241.98	-0.00425074	-0.0050573	0.00263713	1	1.99846e-05	42	23.9458	-1.33368e-08
2	1	0	1	0	7242.37	-0.000276446	-0.00110143	0.0026708	1	2.10432e-05	42	24.3433	-2.94171e-09
2	1	0	1	1	7242.63	-0.00230109	-0.00135701	0.00267363	1	2.17359e-05	42	24.601	-3.62813e-09
2	1	0	1	1	7243.03	-0.00630037	-0.00535069	0.00260146	1	2.27917e-05	42	25.001	-1.39196e-08
2	1	0	1	1	7243.43	-0.0102997	-0.00932146	0.00252072	1	2.3818e-05	42	25.4008	-2.34968e-08
2	1	0	1	1	7243.83	-0.0142989	-0.0133188	0.00246837	1	2.48153e-05	42	25.8008	-3.28756e-08
2	1	0	1	1	7244.23	-0.0182982	-0.0173112	0.00239561	1	2.57892e-05	42	26.2008	-4.14708e-08
2	1	0	1	1	7244.63	-0.0222975	-0.0213218	0.00234054	1	2.67372e-05	42	26.6006	-4.99045e-08
2	1	0	1	1	7245.03	-0.0262968	-0.0253011	0.00228962	1	2.76612e-05	42	27.0006	-5.79299e-08
2	1	0	1	1	7245.43	-0.0302961	-0.0293168	0.00221963	1	2.85614e-05	42	27.4006	-6.50725e-08
2	1	0	1	1	7245.83	-0.0342954	-0.0333069	0.00218462	1	2.94366e-05	42	27.8004	-7.27628e-08
2	1	0	1	1	7246.23	-0.0382947	-0.0373178	0.00211417	1	3.0295e-05	42	28.2004	-7.88963e-08
2	1	0	1	1	7246.63	-0.0422931	-0.0413182	0.00206339	1	3.11279e-05	42	28.6003	-8.52555e-08
2	1	0	1	1	7247.03	-0.0462933	-0.045299	0.00198879	1	3.19364e-05	42	29.0002	-9.00903e-08
2	1	0	1	1	7247.43	-0.0502925	-0.0493103	0.00194952	1	3.27283e-05	42	29.4002	-9.61316e-08
2	1	0	1	1	7247.83	-0.0542918	-0.0532936	0.00189671	1	3.34982e-05	42	29.8	-1.01082e-07
2	1	0	1	1	7248.23	-0.0582911	-0.0572904	0.0018589	1	3.42433e-05	42	30.2	-1.06497e-07
2	1	0	1	1	7248.63	-0.0622904	-0.0612864	0.00179656	1	3.49732e-05	42	30.6	-1.10105e-07
2	1	0	1	1	7249.03	-0.0662897	-0.0652789	0.00174713	1	3.56808e-05	42	30.9998	-1.14051e-07
2	1	0	1	1	7249.43	-0.070289	-0.0692921	0.00169817	1	3.63688e-05	42	31.3998	-1.17669e-07
2	1	0	1	1	7249.83	-0.0742883	-0.0732584	0.00165583	1	3.70384e-05	42	31.7998	-1.21304e-07
2	1	0	1	1	7250.23	-0.0782876	-0.077273	0.00160365	1	3.76906e-05	42	32.1996	-1.23919e-07
2	1	0	1	1	7250.63	-0.0822868	-0.0812653	0.00155989	1	3.83238e-05	42	32.5996	-1.26765e-07
2	1	0	1	1	7251.03	-0.0862861	-0.0852931	0.00150387	1	3.8937e-05	42	32.9996	-1.2827e-07
2	1	0	1	1	7251.43	-0.0902854	-0.0892912	0.0014616	1	3.9531e-05	42	33.3994	-1.30508e-07
2	1	0	1	1	7251.83	-0.0942847	-0.0932822	0.00141654	1	4.01075e-05	42	33.7994	-1.32138e-07
2	1	0	1	1	7252.23	-0.098284	-0.09725	0.00137913	1	4.06606e-05	42	34.1994	-1.34121e-07
2	1	0	1	1	7252.63	-0.102283	-0.101259	0.00133317	1	4.12025e-05	42	34.5992	-1.34995e-07
2	1	0	1	1	7253.03	-0.106283	-0.105272	0.00128473	1	4.17241e-05	42	34.9992	-1.35247e-07
2	1	0	1	1	7253.43	-0.110282	-0.109262	0.00124749	1	4.22318e-05	42	35.399	-1.36303e-07
2	1	0	1	1	7253.83	-0.114281	-0.113275	0.00121101	1	4.27215e-05	42	35.799	-1.37178e-07
2	1	0	1	1	7254.23	-0.11828	-0.117256	0.00116234	1	4.3194e-05	42	36.199	-1.36291e-07
2	1	0	1	1	7254.63	-0.12228	-0.121286	0.00112142	1	4.36479e-05	42	36.5988	-1.36012e-07
2	1	0	1	1	7255.03	-0.126279	-0.125252	0.00107865	1	4.40866e-05	42	36.9988	-1.35104e-07
2	1	0	1	1	7255.43	-0.130278	-0.129249	0.00104404	1	4.45113e-05	42	37.3988	-1.34941e-07
2	1	0	1	1	7255.83	-0.134278	-0.133248	0.00100495	1	4.49212e-05	42	37.7986	-1.33908e-07
2	1	0	1	1	7256.23	-0.138277	-0.137244	0.000964332	1	4.53144e-05	42	38.1986	-1.32349e-07
2	1	0	1	1	7256.63	-0.142276	-0.141248	0.000926356	1	4.56921e-05	42	38.5986	-1.30846e-07
2	1	0	1	1	7257.03	-0.146275	-0.145262	0.000889178	1	4.60547e-05	42	38.9984	-1.29163e-07
2	1	0	1	1	7257.43	-0.150275	-0.149252	0.000838863	1	4.64024e-05	42	39.3984	-1.25202e-07
2	1	0	1	1	7257.83	-0.154274	-0.153268	0.000812713	1	4.6735e-05	42	39.7984	-1.24563e-07
2	1	0	1	1	7258.23	-0.158273	-0.157268	0.000771396	1	4.70513e-05	42	40.1982	-1.21316e-07
2	1	0	1	1	7258.63	-0.162273	-0.161263	0.000740628	1	4.73523e-05	42	40.5982	-1.19436e-07
2	1	0	1	1	7259.03	-0.166272	-0.165235	0.000705281	1	4.7641e-05	42	40.998	-1.16537e-07
2	1	0	1	1	7259.43	-0.170271	-0.169224	0.000670709	1	4.7915e-05	42	41.398	-1.135e-07
2	1	0	1	1	7259.83	-0.17427	-0.173233	0.000635641	1	4.81773e-05	42	41.798	-1.10114e-07
2	1	0	1	1	7260.23	-0.17827	-0.177249	0.000605301	1	4.84248e-05	42	42.1978	-1.07289e-07
2	1	0	1	1	7260.63	-0.182269	-0.181256	0.000572364	1	4.86591e-05	42	42.5978	-1.03745e-07
2	1	0	1	1	7261.03	-0.186268	-0.185247	0.000522819	1	4.88786e-05	42	42.9978	-9.68507e-08
2	1	0	1	1	7261.43	-0.190268	-0.189235	0.000501997	1	4.90854e-05	42	43.3976	-9.49953e-08
2	1	0	1	1	7261.83	-0.194267	-0.193239	0.000469408	1	4.92802e-05	42	43.7976	-9.0708e-08
2	1	0	1	1	7262.63	-0.202265	-0.201264	0.00040259	1	4.96344e-05	43	44.5974	-8.10269e-08
2	1	0	1	1	7263.03	-0.206265	-0.205259	0.000371581	1	4.97891e-05	43	44.9974	-7.62704e-08
2	1	0	1	1	7263.43	-0.210264	-0.209249	0.000338098	1	4.99308e-05	43	45.3974	-7.07468e-08
2	1	0	1	1	7263.83	-0.214263	-0.213249	0.000302615	1	5.00598e-05	43	45.7972	-6.45323e-08
2	1	0	1	1	7264.23	-0.218263	-0.217237	0.000277765	1	5.01758e-05	43	46.1972	-6.0341e-08
2	1	0	1	1	7264.63	-0.222263	-0.221242	0.000247646	1	5.02814e-05	43	46.5971	-5.47898e-08
2	1	0	1	1	7265.03	-0.226261	-0.225238	0.000213989	1	5.03743e-05	43	46.997	-4.81986e-08
2	1	0	1	1	7265.43	-0.230261	-0.229231	0.000189423	1	5.04552e-05	43	47.397	-4.34216e-08
2	1	0	1	1	7265.83	-0.23426	-0.23323	0.000159855	1	5.05251e-05	43	47.7968	-3.72831e-08
2	1	0	1	1	7266.23	-0.238259	-0.237218	0.000130239	1	5.05831e-05	43	48.1968	-3.0895e-08
2	1	0	1	1	7266.63	-0.242258	-0.241217	0.000104363	1	5.06298e-05	43	48.5968	-2.51742e-08
2	1	0	1	1	7267.03	-0.246258	-0.245224	7.41778e-05	1	5.06656e-05	43	48.9966	-1.81902e-08
2	1	0	1	1	7267.63	-0.252257	-0.251226	3.06114e-05	1	5.06977e-05	43	49.5966	-7.69039e-09
2	0	0	1	1	7268.23	-0.258256	-0.25723	-9.48756e-06	1	5.07082e-05	44	0.1	2.44049e-09
2	0	0	1	1	7268.63	-0.262255	-0.261232	-3.92968e-05	1	5.06984e-05	44	0.5	1.02656e-08
2	0	0	1	1	7269.03	-0.266254	-0.265213	-6.58974e-05	1	5.06775e-05	44	0.9	1.74769e-08
2	0	0	1	1	7269.43	-0.270253	-0.269232	-9.29599e-05	1	5.06458e-05	44	1.2998	2.50278e-08
2	0	0	1	1	7270.23	-0.278252	-0.277211	-0.000147587	1	5.05548e-05	43	2.0997	4.09129e-08
2	0	0	1	1	7270.63	-0.282251	-0.281218	-0.000167393	1	5.04913e-05	43	2.4996	4.70739e-08
2	0	0	1	1	7271.03	-0.286251	-0.285212	-0.000202763	1	5.04158e-05	43	2.8996	5.78303e-08
2	0	0	1	1	7271.43	-0.29025	-0.289201	-0.000232706	1	5.03296e-05	43	3.2994	6.72989e-08
2	0	0	1	1	7271.83	-0.294249	-0.293205	-0.000257793	1	5.0232e-05	43	3.6994	7.55861e-08
2	0	0	1	1	7272.23	-0.298248	-0.297174	-0.000284338	1	5.01239e-05	43	4.0994	8.44979e-08
2	0	0	1	1	7272.63	-0.302248	-0.301187	-0.000307288	1	5.0005e-05	43	4.4992	9.25511e-08
2	0	0	1	1	7273.03	-0.306247	-0.305176	-0.000335819	1	4.98762e-05	43	4.8992	1.02484e-07
2	0	0	1	1	7273.43	-0.310246	-0.309187	-0.000362248	1	4.97365e-05	43	5.2992	1.12002e-07
2	0	0	1	1	7273.83	-0.314246	-0.313178	-0.000391168	1	4.95871e-05	43	5.699	1.22505e-07
2	0	0	1	1	7274.23	-0.318245	-0.317194	-0.000415368	1	4.94258e-05	43	6.099	1.31752e-07
2	0	0	1	1	7274.63	-0.322244	-0.321172	-0.000442851	1	4.92539e-05	43	6.499	1.42231e-07
2	0	0	1	1	7275.03	-0.326243	-0.32518	-0.000472867	2	4.90725e-05	43	6.8988	1.53767e-07
2	0	0	1	1	7275.43	-0.330243	-0.329168	-0.00049757	2	4.88787e-05	43	7.2988	1.63784e-07
2	0	0	1	1	7275.83	-0.334242	-0.333158	-0.000526865	2	4.86762e-05	43	7.6987	1.75529e-07
2	0	0	1	1	7276.23	-0.338241	-0.337162	-0.000551937	2	4.846e-05	43	8.0986	1.86092e-07
2	0	0	1	1	7276.63	-0.342241	-0.341175	-0.000572635	2	4.82354e-05	43	8.4986	1.95369e-07
2	0	0	1	1	7277.03	-0.34624	-0.345172	-0.000595636	2	4.80052e-05	43	8.8984	2.05597e-07
2	0	0	1	1	7277.43	-0.350239	-0.349149	-0.000633232	2	4.77574e-05	43	9.2984	2.21092e-07
2	0	0	1	1	7277.83	-0.354238	-0.353145	-0.000657566	2	4.74995e-05	43	9.6984	2.32216e-07
2	0	0	1	1	7278.23	-0.358238	-0.357134	-0.000681015	2	4.7232e-05	43	10.0982	2.43214e-07
2	0	0	1	1	7278.63	-0.362237	-0.361125	-0.000718695	2	4.69549e-05	43	10.4982	2.59538e-07
2	0	0	1	1	7279.03	-0.366236	-0.365128	-0.000738783	2	4.6663e-05	43	10.8982	2.6975e-07
2	0	0	1	1	7279.42	-0.370236	-0.369146	-0.000762923	2	4.63619e-05	43	11.298	2.8163e-07
2	0	0	1	1	7279.78	-0.373185	-0.372616	-0.000788159	2	4.60893e-05	43	11.6486	2.93681e-07
2	0	0	1	1	7280.18	-0.369186	-0.369825	-0.000719629	2	4.57859e-05	43	12.0486	2.66137e-07
2	0	0	1	1	7280.58	-0.365186	-0.365821	-0.000696889	2	4.55025e-05	43	12.4484	2.54936e-07
2	0	0	1	1	7280.98	-0.361187	-0.361822	-0.000665039	2	4.52326e-05	43	12.8484	2.40626e-07
2	0	0	1	1	7281.38	-0.357188	-0.357842	-0.000628679	2	4.49752e-05	43	13.2484	2.24968e-07
2	0	0	1	1	7281.78	-0.353189	-0.353848	-0.000611737	2	4.47319e-05	43	13.6482	2.16462e-07
2	0	0	1	1	7282.18	-0.349189	-0.349839	-0.000578585	2	4.44944e-05	43	14.0482	2.02411e-07
2	0	0	1	1	7282.57	-0.34519	-0.345847	-0.000544044	2	4.42708e-05	43	14.448	1.88156e-07
2	0	0	1	1	7282.97	-0.341191	-0.341852	-0.000530501	2	4.4053e-05	43	14.848	1.81353e-07
2	0	0	1	1	7283.37	-0.337191	-0.337857	-0.000504807	2	4.38459e-05	43	15.248	1.70553e-07
2	0	0	1	1	7283.77	-0.333192	-0.333853	-0.000480192	2	4.36509e-05	43	15.6478	1.60314e-07
2	0	0	1	1	7284.17	-0.329193	-0.329839	-0.000454593	2	4.34645e-05	43	16.0478	1.49942e-07
2	0	0	1	1	7284.57	-0.325194	-0.325872	-0.00041746	2	4.32888e-05	43	16.4478	1.36039e-07
2	0	0	1	1	7284.97	-0.321194	-0.321863	-0.000389153	2	4.31285e-05	43	16.8476	1.25254e-07
2	0	0	1	1	7285.37	-0.317195	-0.31787	-0.000367375	2	4.29768e-05	43	17.2476	1.16777e-07
2	0	0	1	1	7285.77	-0.313196	-0.31387	-0.00034419	2	4.28351e-05	43	17.6476	1.08031e-07
2	0	0	1	1	7286.17	-0.309196	-0.309863	-0.000316661	2	4.27028e-05	43	18.0474	9.81215e-08
2	0	0	1	1	7286.57	-0.305197	-0.305857	-0.000291522	2	4.25813e-05	43	18.4474	8.91642e-08
2	0	0	1	1	7286.97	-0.301198	-0.301884	-0.000268505	2	4.24695e-05	43	18.8474	8.10575e-08
2	0	0	1	1	7287.37	-0.297199	-0.297864	-0.000240098	2	4.23679e-05	43	19.2472	7.15165e-08
2	0	0	1	1	7287.77	-0.293199	-0.293862	-0.000216554	2	4.22765e-05	43	19.6472	6.36372e-08
2	0	0	1	1	7288.17	-0.2892	-0.289887	-0.000189102	2	4.21954e-05	43	20.047	5.48182e-08
2	0	0	1	1	7288.57	-0.285201	-0.285875	-0.000164946	2	4.21244e-05	43	20.447	4.71541e-08
2	0	0	1	1	7288.97	-0.281201	-0.281881	-0.000138449	2	4.20637e-05	43	20.847	3.90263e-08
2	0	0	1	1	7289.37	-0.277202	-0.277917	-0.000112284	2	4.20136e-05	43	21.2468	3.12057e-08
2	0	0	1	1	7289.77	-0.273203	-0.273908	-8.51628e-05	2	4.1974e-05	43	21.6468	2.33268e-08
2	0	0	1	1	7290.17	-0.269204	-0.269919	-6.20804e-05	2	4.19445e-05	43	22.0468	1.67567e-08
2	0	0	1	1	7290.97	-0.261205	-0.261908	-7.76632e-06	2	4.19115e-05	44	22.8466	2.03406e-09
2	1	0	1	1	7292.17	-0.249207	-0.249908	7.33517e-05	2	4.19392e-05	44	0.6499	-1.83312e-08
2	1	0	1	1	7292.57	-0.245208	-0.245928	0.000100982	2	4.19741e-05	44	1.0499	-2.48342e-08
2	1	0	1	1	7293.37	-0.237209	-0.237933	0.000156683	2	4.20713e-05	43	1.8497	-3.72799e-08
2	1	0	1	1	7293.77	-0.233209	-0.233938	0.000179952	2	4.21396e-05	43	2.2496	-4.20977e-08
2	1	0	1	1	7294.17	-0.229211	-0.229954	0.000213974	2	4.22188e-05	43	2.6495	-4.92042e-08
2	1	0	1	1	7294.57	-0.225211	-0.225919	0.000238357	2	4.23086e-05	43	3.0495	-5.38494e-08
2	1	0	1	1	7294.97	-0.221212	-0.221937	0.000266294	2	4.24096e-05	43	3.4493	-5.91004e-08
2	1	0	1	1	7295.37	-0.217213	-0.217955	0.000297191	2	4.25225e-05	43	3.8493	-6.47744e-08
2	1	0	1	1	7295.77	-0.213214	-0.213967	0.000325253	2	4.26474e-05	43	4.2493	-6.95936e-08
2	1	0	1	1	7296.17	-0.209214	-0.209986	0.000355118	2	4.27834e-05	43	4.6491	-7.45696e-08
2	1	0	1	1	7296.57	-0.205215	-0.205984	0.000391288	2	4.29336e-05	43	5.0491	-8.05991e-08
2	1	0	1	1	7296.97	-0.201216	-0.201995	0.000423071	2	4.30961e-05	43	5.4491	-8.54584e-08
2	1	0	1	1	7297.37	-0.197216	-0.197986	0.000453104	2	4.32714e-05	43	5.8489	-8.97082e-08
2	1	0	1	1	7297.77	-0.193217	-0.193998	0.000485119	2	4.3459e-05	43	6.2489	-9.41124e-08
2	1	0	1	1	7298.17	-0.189218	-0.190001	0.000520672	2	4.36598e-05	43	6.6489	-9.89279e-08
2	1	0	1	1	7298.57	-0.185219	-0.18601	0.000550746	2	4.38742e-05	43	7.0487	-1.02444e-07
2	1	0	1	1	7298.97	-0.181219	-0.18201	0.000578412	2	4.41012e-05	43	7.4487	-1.05277e-07
2	1	0	1	1	7299.37	-0.17722	-0.178022	0.000627204	2	4.43406e-05	43	7.8486	-1.11656e-07
2	1	0	1	1	7299.77	-0.173221	-0.174023	0.000667469	2	4.45972e-05	43	8.2485	-1.16155e-07
2	1	0	1	1	7300.17	-0.169221	-0.170002	0.000687705	2	4.48674e-05	43	8.6485	-1.16911e-07
2	1	0	1	1	7300.57	-0.165222	-0.166032	0.000724596	2	4.5151e-05	43	9.0483	-1.20306e-07
2	1	0	1	1	7300.97	-0.161223	-0.16206	0.00074776	2	4.54474e-05	43	9.4483	-1.21182e-07
2	1	0	1	1	7301.37	-0.157224	-0.158058	0.000790362	2	4.57558e-05	43	9.8483	-1.24923e-07
2	1	0	1	1	7301.77	-0.153224	-0.154034	0.000826914	2	4.60795e-05	43	10.2481	-1.27373e-07
2	1	0	1	1	7302.17	-0.149225	-0.150065	0.000865279	2	4.64175e-05	43	10.6481	-1.29848e-07
2	1	0	1	1	7302.57	-0.145226	-0.146054	0.000902469	2	4.67709e-05	43	11.0481	-1.31809e-07
2	1	0	1	1	7302.97	-0.141226	-0.142047	0.000939485	2	4.71387e-05	43	11.4479	-1.33451e-07
2	1	0	1	1	7303.37	-0.137227	-0.13806	0.000982017	2	4.75223e-05	43	11.8479	-1.35577e-07
2	1	0	1	1	7303.77	-0.133228	-0.134077	0.00101368	2	4.79177e-05	43	12.2479	-1.35912e-07
2	1	0	1	1	7304.17	-0.129228	-0.130087	0.00105903	2	4.83346e-05	43	12.6477	-1.37766e-07
2	1	0	1	1	7304.57	-0.125229	-0.126085	0.00108597	2	4.87646e-05	43	13.0477	-1.36924e-07
2	1	0	1	1	7305.37	-0.117231	-0.11801	0.00117944	2	4.96641e-05	42	13.8475	-1.39186e-07
2	1	0	1	1	7305.77	-0.113231	-0.114006	0.00120989	2	5.01437e-05	42	14.2475	-1.37935e-07
2	1	0	1	1	7306.17	-0.109232	-0.110015	0.0012522	2	5.06356e-05	42	14.6473	-1.37761e-07
2	1	0	1	1	7306.57	-0.105233	-0.106005	0.00130263	2	5.11484e-05	42	15.0473	-1.38085e-07
2	1	0	1	1	7306.97	-0.101233	-0.102012	0.00134034	2	5.16759e-05	42	15.4473	-1.36731e-07
2	1	0	1	1	7307.37	-0.0972342	-0.0980192	0.00137945	2	5.22202e-05	42	15.8471	-1.35212e-07
2	1	0	1	1	7307.77	-0.0932349	-0.0940077	0.00142809	2	5.27833e-05	42	16.2471	-1.34251e-07
2	1	0	1	1	7308.17	-0.0892356	-0.0900121	0.00146175	2	5.33623e-05	42	16.6471	-1.31575e-07
2	1	0	1	1	7308.57	-0.0852363	-0.086009	0.00150471	2	5.39557e-05	42	17.0469	-1.29419e-07
2	1	0	1	1	7308.97	-0.081237	-0.082012	0.00156063	2	5.45717e-05	42	17.4469	-1.2799e-07
2	1	0	1	1	7309.37	-0.0772377	-0.0780232	0.00160411	2	5.52006e-05	42	17.8469	-1.25157e-07
2	1	0	1	1	7309.77	-0.0732385	-0.0740354	0.00166112	2	5.58571e-05	42	18.2467	-1.22982e-07
2	1	0	1	1	7310.17	-0.0692392	-0.0700318	0.00171602	2	5.65306e-05	42	18.6467	-1.20176e-07
2	1	0	1	1	7310.57	-0.0652399	-0.0660353	0.00175427	2	5.72239e-05	42	19.0467	-1.15844e-07
2	1	0	1	1	7310.97	-0.0612406	-0.0620355	0.00180766	2	5.79378e-05	42	19.4465	-1.12139e-07
2	1	0	1	1	7311.37	-0.0572413	-0.0580282	0.00185645	2	5.8668e-05	42	19.8465	-1.07726e-07
2	1	0	1	1	7311.77	-0.053242	-0.0540163	0.00190495	2	5.94194e-05	42	20.2463	-1.02898e-07
2	1	0	1	1	7312.17	-0.0492427	-0.050046	0.00194457	2	6.01902e-05	42	20.6463	-9.73179e-08
2	1	0	1	1	7312.57	-0.0452434	-0.0460368	0.00199519	2	6.09779e-05	42	21.0463	-9.18524e-08
2	1	0	1	1	7312.97	-0.0412442	-0.0420384	0.00206178	2	6.17899e-05	42	21.4461	-8.66741e-08
2	1	0	1	1	7313.37	-0.0372449	-0.0380454	0.00210015	2	6.26218e-05	42	21.8461	-7.99012e-08
2	1	0	1	1	7313.77	-0.0332456	-0.0340615	0.00216889	2	6.34764e-05	42	22.2461	-7.38755e-08
2	1	0	1	1	7314.17	-0.0292463	-0.0300623	0.00222614	2	6.43516e-05	42	22.6459	-6.6923e-08
2	1	0	1	1	7314.57	-0.025247	-0.0260626	0.00227094	2	6.52522e-05	42	23.0459	-5.91867e-08
2	1	0	1	1	7314.97	-0.0212477	-0.0220539	0.0023233	2	6.61722e-05	42	23.4459	-5.12378e-08
2	1	0	1	1	7315.37	-0.0172484	-0.0180596	0.00239518	2	6.7117e-05	42	23.8457	-4.32559e-08
2	1	0	1	1	7315.77	-0.0132491	-0.01405	0.00245869	2	6.80871e-05	42	24.2457	-3.45445e-08
2	1	0	1	1	7316.17	-0.00924985	-0.010047	0.00249929	2	6.90773e-05	42	24.6457	-2.51103e-08
2	1	0	1	1	7316.57	-0.00525056	-0.00606092	0.00257178	2	7.00901e-05	42	25.0455	-1.55873e-08
2	1	0	1	1	7316.97	-0.00125127	-0.00208082	0.0026316	2	7.11316e-05	42	25.4455	-5.47589e-09
2	1	0	1	0	7317.22	-0.00130126	-0.000411937	0.00265636	2	7.18056e-05	42	25.7007	-1.09425e-09
2	1	0	1	0	7317.62	-0.00530055	-0.0043615	0.00255948	2	7.2846e-05	42	26.1007	-1.11632e-08
2	1	0	1	0	7318.02	-0.00929984	-0.00835412	0.00248912	2	7.38521e-05	42	26.5005	-2.07944e-08
2	1	0	1	0	7318.42	-0.0132991	-0.0123289	0.00243477	2	7.48384e-05	42	26.9005	-3.00181e-08
2	1	0	1	0	7318.82	-0.0172984	-0.016354	0.00237783	2	7.57988e-05	42	27.3005	-3.88871e-08
2	1	0	1	0	7319.22	-0.0212977	-0.0203248	0.00231901	2	7.67392e-05	42	27.7003	-4.71334e-08
2	1	0	1	0	7319.62	-0.025297	-0.0243149	0.00227558	2	7.76577e-05	42	28.1003	-5.53305e-08
2	1	0	1	0	7320.02	-0.0292963	-0.0283168	0.00220717	2	7.8554e-05	42	28.5003	-6.25001e-08
2	1	0	1	0	7320.42	-0.0332956	-0.0323232	0.00215739	2	7.94255e-05	42	28.9001	-6.97337e-08
2	1	0	1	0	7320.82	-0.0372949	-0.0363163	0.00210706	2	8.02785e-05	42	29.3001	-7.65207e-08
2	1	0	1	0	7321.22	-0.0412941	-0.0403085	0.0020562	2	8.11112e-05	42	29.7001	-8.28822e-08
2	1	0	1	0	7321.62	-0.0452934	-0.0443295	0.00199655	2	8.19212e-05	42	30.0999	-8.8506e-08
2	1	0	1	0	7322.02	-0.0492927	-0.0483047	0.00194907	2	8.27127e-05	42	30.4999	-9.41494e-08
2	1	0	1	0	7322.42	-0.053292	-0.052302	0.00189427	2	8.34825e-05	42	30.8999	-9.9074e-08
2	1	0	1	0	7322.82	-0.0572913	-0.056294	0.00185245	2	8.42338e-05	42	31.2997	-1.04282e-07
2	1	0	1	0	7323.22	-0.0612906	-0.0602983	0.00180645	2	8.49644e-05	42	31.6997	-1.08926e-07
2	1	0	1	0	7323.62	-0.0652899	-0.0642933	0.00174462	2	8.56729e-05	42	32.0995	-1.12168e-07
2	1	0	1	0	7324.02	-0.0692892	-0.068294	0.00169522	2	8.63625e-05	42	32.4995	-1.15774e-07
2	1	0	1	0	7324.42	-0.0732884	-0.0722942	0.00165721	2	8.70334e-05	42	32.8995	-1.19807e-07
2	1	0	1	0	7324.82	-0.0772877	-0.0762752	0.00160261	2	8.76831e-05	42	33.2993	-1.22239e-07
2	1	0	1	0	7325.22	-0.081287	-0.0802858	0.00155572	2	8.83158e-05	42	33.6993	-1.24902e-07
2	1	0	1	0	7325.62	-0.0852863	-0.084299	0.0015023	2	8.89284e-05	42	34.0993	-1.26643e-07
2	1	0	1	0	7326.02	-0.0892856	-0.0882832	0.00143479	2	8.9515e-05	42	34.4991	-1.26668e-07
2	1	0	1	0	7326.42	-0.0932849	-0.092262	0.00141046	2	9.00847e-05	42	34.8991	-1.30132e-07
2	1	0	1	0	7326.82	-0.0972842	-0.0962695	0.00135713	2	9.06388e-05	42	35.2991	-1.3065e-07
2	1	0	1	0	7327.22	-0.101283	-0.100292	0.00131267	2	9.11709e-05	42	35.6989	-1.3165e-07
2	1	0	1	0	7327.62	-0.105283	-0.104271	0.00127434	2	9.1689e-05	42	36.0989	-1.32877e-07
2	1	0	1	0	7328.02	-0.109282	-0.108296	0.00122627	2	9.21897e-05	42	36.4989	-1.328e-07
2	1	0	1	0	7328.42	-0.113281	-0.112296	0.00119073	2	9.26726e-05	42	36.8987	-1.33714e-07
2	1	0	1	0	7328.82	-0.117281	-0.116307	0.0011508	2	9.31399e-05	42	37.2987	-1.33846e-07
2	1	0	1	0	7329.22	-0.121281	-0.120272	0.00111162	2	9.35925e-05	42	37.6986	-1.33697e-07
2	1	0	1	0	7329.62	-0.125279	-0.12427	0.00107647	2	9.40294e-05	42	38.0985	-1.33773e-07
2	1	0	1	0	7330.02	-0.129278	-0.128255	0.00102856	2	9.44505e-05	42	38.4985	-1.31919e-07
2	1	0	1	0	7330.42	-0.133278	-0.132244	0.000991361	2	9.48558e-05	42	38.8983	-1.31101e-07
2	1	0	1	0	7330.82	-0.137277	-0.136251	0.000954611	2	9.52451e-05	42	39.2983	-1.30067e-07
2	1	0	1	0	7331.22	-0.141276	-0.140253	0.00090655	2	9.56168e-05	42	39.6983	-1.27147e-07
2	1	0	1	0	7331.62	-0.145276	-0.144276	0.000865762	2	9.59744e-05	42	40.0981	-1.24909e-07
2	1	0	1	0	7332.02	-0.149275	-0.148272	0.000837794	2	9.63167e-05	42	40.4981	-1.24221e-07
2	1	0	1	0	7332.42	-0.153274	-0.15227	0.000815788	2	9.6647e-05	42	40.8981	-1.2422e-07
2	1	0	1	0	7332.82	-0.157274	-0.156262	0.000761268	2	9.69606e-05	42	41.2979	-1.18957e-07
2	1	0	1	0	7333.22	-0.161273	-0.160277	0.000744455	2	9.72608e-05	42	41.6979	-1.19319e-07
2	1	0	1	0	7333.62	-0.165272	-0.164229	0.000703146	2	9.75497e-05	42	42.0979	-1.15477e-07
2	1	0	1	0	7334.02	-0.169271	-0.16822	0.000670443	2	9.78238e-05	42	42.4977	-1.12782e-07
2	1	0	1	0	7334.42	-0.173271	-0.172232	0.000639131	2	9.80842e-05	42	42.8977	-1.10079e-07
2	1	0	1	0	7334.82	-0.17727	-0.176241	0.000604897	2	9.83316e-05	42	43.2976	-1.06608e-07
2	1	0	1	0	7335.22	-0.181269	-0.180238	0.000577133	2	9.85685e-05	42	43.6975	-1.04021e-07
2	1	0	1	0	7335.62	-0.185269	-0.184243	0.000537227	2	9.87899e-05	42	44.0975	-9.89804e-08
2	1	0	1	0	7336.02	-0.189268	-0.18824	0.000505198	2	9.89989e-05	42	44.4973	-9.50986e-08
2	1	0	1	0	7336.42	-0.193267	-0.19224	0.000477822	2	9.91954e-05	42	44.8973	-9.18565e-08
2	1	0	1	0	7337.22	-0.201266	-0.20027	0.000408321	2	9.95552e-05	43	45.6971	-8.17745e-08
2	1	0	1	0	7337.62	-0.205265	-0.204263	0.000379669	2	9.9713e-05	43	46.0971	-7.75522e-08
2	1	0	1	0	7338.02	-0.209264	-0.208274	0.000349423	2	9.98598e-05	43	46.4971	-7.27757e-08
2	1	0	1	0	7338.42	-0.213264	-0.212228	0.000320903	2	9.99932e-05	43	46.8969	-6.81044e-08
2	1	0	1	0	7338.82	-0.217263	-0.216262	0.000292037	2	0.000100116	43	47.2969	-6.31565e-08
2	1	0	1	0	7339.22	-0.221262	-0.22025	0.000266492	2	0.000100227	43	47.6969	-5.8695e-08
2	1	0	1	0	7339.62	-0.225261	-0.224273	0.000234137	2	0.000100327	43	48.0967	-5.25106e-08
2	1	0	1	0	7340.02	-0.229261	-0.228246	0.000203676	2	0.000100415	43	48.4967	-4.64883e-08
2	1	0	1	0	7340.42	-0.23326	-0.232257	0.000175996	2	0.000100491	43	48.8966	-4.08764e-08
2	1	0	1	0	7340.82	-0.237259	-0.236273	0.000147323	2	0.000100555	43	49.2965	-3.48085e-08
2	1	0	1	0	7341.22	-0.241259	-0.240243	0.000118671	2	0.000100608	43	49.6965	-2.851e-08
2	1	0	1	0	7341.62	-0.245258	-0.244232	9.14977e-05	2	0.00010065	43	50.0963	-2.23466e-08
2	1	0	1	0	7342.02	-0.249257	-0.248224	6.22386e-05	2	0.000100681	43	50.4963	-1.54491e-08
2	1	0	1	0	7342.82	-0.257256	-0.256246	7.70423e-06	2	0.000100715	44	51.2961	-1.97418e-09
2	0	0	1	0	7343.22	-0.261255	-0.260222	-1.99265e-05	2	0.000100712	44	0.25	5.1853e-09
2	0	0	1	0	7343.62	-0.265254	-0.264243	-4.59465e-05	2	0.000100699	44	0.65	1.2141e-08
2	0	0	1	0	7344.02	-0.269254	-0.268242	-7.27422e-05	2	0.000100675	44	1.0498	1.95125e-08
2	0	0	1	0	7344.42	-0.273253	-0.272241	-9.91554e-05	2	0.000100641	44	1.4498	2.69942e-08
2	0	0	1	0	7345.22	-0.281251	-0.280228	-0.000154249	2	0.000100545	43	2.2496	4.32249e-08
2	0	0	1	0	7345.62	-0.285251	-0.284201	-0.00017908	2	0.000100478	43	2.6496	5.08949e-08
2	0	0	1	0	7346.02	-0.289249	-0.288176	-0.000204598	2	0.000100402	43	3.0495	5.89603e-08
2	0	0	1	0	7346.42	-0.293249	-0.292203	-0.000231321	2	0.000100316	43	3.4494	6.75928e-08
2	0	0	1	0	7346.82	-0.297249	-0.296197	-0.000254962	2	0.000100219	43	3.8494	7.55188e-08
2	0	0	1	0	7347.22	-0.301248	-0.300214	-0.000284118	2	0.000100111	43	4.2492	8.52963e-08
2	0	0	1	0	7347.62	-0.305247	-0.304229	-0.000308639	2	9.99926e-05	43	4.6492	9.38969e-08
2	0	0	1	0	7348.02	-0.309246	-0.308219	-0.000328392	2	9.98653e-05	43	5.0492	1.01217e-07
2	0	0	1	0	7348.42	-0.313246	-0.312213	-0.000361359	2	9.97281e-05	43	5.449	1.12821e-07
2	0	0	1	0	7348.82	-0.317245	-0.31621	-0.000379556	2	9.958e-05	43	5.849	1.2002e-07
2	0	0	1	0	7349.22	-0.321244	-0.320205	-0.000413795	2	9.94201e-05	43	6.249	1.32499e-07
2	0	0	1	0	7349.62	-0.325244	-0.3242	-0.000437656	3	9.92499e-05	43	6.6488	1.41888e-07
2	0	0	1	0	7350.02	-0.329243	-0.328194	-0.00046095	3	9.90703e-05	43	7.0488	1.51281e-07
2	0	0	1	0	7350.42	-0.333242	-0.33217	-0.000494	3	9.88802e-05	43	7.4488	1.64092e-07
2	0	0	1	0	7350.82	-0.337241	-0.336169	-0.000520736	3	9.86768e-05	43	7.8486	1.75055e-07
2	0	0	1	0	7351.22	-0.341241	-0.340167	-0.000544165	3	9.84652e-05	43	8.2486	1.85107e-07
2	0	0	1	0	7351.62	-0.345239	-0.344166	-0.000569849	3	9.82433e-05	43	8.6485	1.96123e-07
2	0	0	1	0	7352.02	-0.349239	-0.34816	-0.000590765	3	9.8012e-05	43	9.0484	2.05681e-07
2	0	0	1	0	7352.42	-0.353239	-0.352158	-0.000617324	3	9.77696e-05	43	9.4484	2.17395e-07
2	0	0	1	0	7352.82	-0.357238	-0.356176	-0.000650177	3	9.75168e-05	43	9.8482	2.31577e-07
2	0	0	1	0	7353.22	-0.361237	-0.360144	-0.00066947	3	9.72542e-05	43	10.2482	2.41105e-07
2	0	0	1	0	7353.62	-0.365236	-0.364145	-0.000698816	3	9.69804e-05	43	10.6482	2.54471e-07
2	0	0	1	0	7354.02	-0.369236	-0.368137	-0.000724794	3	9.66962e-05	43	11.048	2.66824e-07
2	0	0	1	0	7354.42	-0.37321	-0.372105	-0.000747936	3	9.64038e-05	43	11.4455	2.78311e-07
2	0	0	1	0	7354.77	-0.370186	-0.370788	-0.000697474	3	9.61459e-05	43	11.7986	2.58615e-07
2	0	0	1	0	7355.17	-0.366186	-0.366823	-0.000657138	3	9.58761e-05	43	12.1984	2.41053e-07
2	0	0	1	0	7355.57	-0.362187	-0.36283	-0.000628106	3	9.56189e-05	43	12.5984	2.27896e-07
2	0	0	1	0	7355.97	-0.358188	-0.358842	-0.000609104	3	9.5371e-05	43	12.9984	2.18572e-07
2	0	0	1	0	7356.37	-0.354188	-0.354843	-0.000573686	3	9.51355e-05	43	13.3982	2.03568e-07
2	0	0	1	0	7356.77	-0.350189	-0.350854	-0.000554394	3	9.49097e-05	43	13.7982	1.94511e-07
2	0	0	1	0	7357.17	-0.34619	-0.346856	-0.00052317	3	9.46936e-05	43	14.1982	1.81465e-07
2	0	0	1	0	7357.57	-0.342191	-0.342864	-0.000506179	3	9.44874e-05	43	14.598	1.73551e-07
2	0	0	1	0	7357.97	-0.338191	-0.338854	-0.000481905	3	9.42902e-05	43	14.998	1.63295e-07
2	0	0	1	0	7358.37	-0.334192	-0.334862	-0.00045278	3	9.41042e-05	43	15.3978	1.51619e-07
2	0	0	1	0	7358.77	-0.330193	-0.330863	-0.00042682	3	9.39283e-05	43	15.7978	1.41219e-07
2	0	0	1	0	7359.17	-0.326193	-0.326867	-0.000403938	3	9.37621e-05	43	16.1978	1.32034e-07
2	0	0	1	0	7359.57	-0.322194	-0.322848	-0.000377618	3	9.36056e-05	43	16.5976	1.21913e-07
2	0	0	1	0	7359.97	-0.318195	-0.318884	-0.000351833	3	9.34599e-05	43	16.9976	1.12194e-07
2	0	0	1	0	7360.37	-0.314196	-0.314902	-0.000326573	3	9.33236e-05	43	17.3976	1.02838e-07
2	0	0	1	0	7360.77	-0.310196	-0.310905	-0.000301629	3	9.31978e-05	43	17.7974	9.37781e-08
2	0	0	1	0	7361.17	-0.306197	-0.306899	-0.000276648	3	9.30819e-05	43	18.1974	8.49029e-08
2	0	0	1	0	7361.57	-0.302198	-0.302907	-0.00025186	3	9.29757e-05	43	18.5974	7.62901e-08
2	0	0	1	0	7361.97	-0.298198	-0.298889	-0.000228084	3	9.28797e-05	43	18.9972	6.81718e-08
2	0	0	1	0	7362.37	-0.294199	-0.294903	-0.000202721	3	9.27932e-05	43	19.3972	5.97829e-08
2	0	0	1	0	7362.77	-0.2902	-0.290891	-0.000178803	3	9.27174e-05	43	19.7972	5.20121e-08
2	0	0	1	0	7363.17	-0.286201	-0.286883	-0.000152897	3	9.26514e-05	43	20.197	4.38635e-08
2	0	0	1	0	7363.57	-0.282201	-0.282894	-0.00012736	3	9.25954e-05	43	20.597	3.60294e-08
2	0	0	1	0	7363.97	-0.278202	-0.27893	-0.000100811	3	9.25499e-05	43	20.9969	2.81192e-08
2	0	0	1	0	7364.37	-0.274203	-0.274918	-7.52174e-05	3	9.25146e-05	43	21.3968	2.06786e-08
2	0	0	1	0	7364.77	-0.270203	-0.270929	-4.92967e-05	3	9.24898e-05	43	21.7968	1.33559e-08
2	1	0	1	0	7366.37	-0.254156	-0.254894	5.68252e-05	3	9.24794e-05	44	0.4499	-1.44844e-08
2	1	0	1	0	7366.77	-0.250157	-0.250865	8.33078e-05	3	9.25076e-05	44	0.8499	-2.0899e-08
2	1	0	1	0	7367.58	-0.242108	-0.242834	0.000138644	3	9.25918e-05	43	1.6547	-3.36675e-08
2	1	0	1	0	7367.98	-0.238109	-0.238842	0.000166183	3	9.26527e-05	43	2.0547	-3.96915e-08
2	1	0	1	0	7368.38	-0.23411	-0.234862	0.000194115	3	9.27248e-05	43	2.4547	-4.55902e-08
2	1	0	1	0	7368.78	-0.230111	-0.230862	0.000222196	3	9.28079e-05	43	2.8545	-5.12968e-08
2	1	0	1	0	7369.18	-0.226111	-0.226872	0.00024907	3	9.29024e-05	43	3.2545	-5.6507e-08
2	1	0	1	0	7369.58	-0.222112	-0.222861	0.000279305	3	9.30083e-05	43	3.6544	-6.22463e-08
2	1	0	1	0	7369.98	-0.218113	-0.218856	0.000307882	3	9.31247e-05	43	4.0543	-6.73819e-08
2	1	0	1	0	7370.38	-0.214113	-0.214861	0.000336966	3	9.32535e-05	43	4.4543	-7.2401e-08
2	1	0	1	0	7370.78	-0.210114	-0.210867	0.000366278	3	9.33941e-05	43	4.8541	-7.7236e-08
2	1	0	1	0	7371.18	-0.206115	-0.206872	0.000396537	3	9.35466e-05	43	5.2541	-8.20324e-08
2	1	0	1	0	7371.58	-0.202116	-0.202915	0.000423941	3	9.37106e-05	43	5.6541	-8.60239e-08
2	1	0	1	0	7371.97	-0.198116	-0.198869	0.000453531	3	9.38844e-05	43	6.0539	-9.01933e-08
2	1	0	1	0	7372.37	-0.194117	-0.194881	0.000482495	3	9.40723e-05	43	6.4539	-9.40291e-08
2	1	0	1	0	7372.77	-0.190118	-0.190896	0.000515882	3	9.42719e-05	43	6.8539	-9.84799e-08
2	1	0	1	0	7373.17	-0.186118	-0.186903	0.000547092	3	9.44847e-05	43	7.2537	-1.02253e-07
2	1	0	1	0	7373.57	-0.182119	-0.182897	0.00057695	3	9.4709e-05	43	7.6537	-1.05522e-07
2	1	0	1	0	7373.97	-0.17812	-0.178894	0.000611423	3	9.49463e-05	43	8.0537	-1.0938e-07
2	1	0	1	0	7374.37	-0.174121	-0.174902	0.000644035	3	9.5196e-05	43	8.4535	-1.12643e-07
2	1	0	1	0	7374.77	-0.170121	-0.17092	0.000674299	3	9.54597e-05	43	8.8535	-1.15251e-07
2	1	0	1	0	7375.17	-0.166122	-0.166925	0.000710981	3	9.57365e-05	43	9.2534	-1.1868e-07
2	1	0	1	0	7375.57	-0.162123	-0.162964	0.000737716	3	9.60274e-05	43	9.6533	-1.20221e-07
2	1	0	1	0	7375.97	-0.158123	-0.158957	0.000774827	3	9.63294e-05	43	10.0533	-1.23164e-07
2	1	0	1	0	7376.37	-0.154124	-0.154951	0.000810373	3	9.66477e-05	43	10.4531	-1.25568e-07
2	1	0	1	0	7376.77	-0.150125	-0.150958	0.000842551	3	9.69798e-05	43	10.8531	-1.2719e-07
2	1	0	1	0	7377.17	-0.146125	-0.146957	0.000871749	3	9.73229e-05	43	11.2531	-1.2811e-07
2	1	0	1	0	7377.57	-0.142126	-0.142967	0.000903268	3	9.76812e-05	43	11.6529	-1.29138e-07
2	1	0	1	0	7377.97	-0.138127	-0.138986	0.00094771	3	9.80549e-05	43	12.0529	-1.31718e-07
2	1	0	1	0	7378.37	-0.134128	-0.13496	0.000992973	3	9.84423e-05	43	12.4529	-1.34012e-07
2	1	0	1	0	7378.77	-0.130128	-0.130985	0.00102803	3	9.8846e-05	43	12.8527	-1.34657e-07
2	1	0	1	0	7379.17	-0.126129	-0.126971	0.00106984	3	9.92657e-05	43	13.2527	-1.35839e-07
2	1	0	1	0	7379.97	-0.11813	-0.118898	0.00115327	3	0.000100141	42	14.0525	-1.37121e-07
2	1	0	1	0	7380.37	-0.114131	-0.114907	0.0011942	3	0.00010061	42	14.4525	-1.37222e-07
2	1	0	1	0	7380.77	-0.110133	-0.110902	0.0012318	3	0.000101095	42	14.8524	-1.36609e-07
2	1	0	1	0	7381.17	-0.106133	-0.106922	0.00127109	3	0.000101596	42	15.2523	-1.35908e-07
2	1	0	1	0	7381.57	-0.102133	-0.102914	0.00131767	3	0.000102114	42	15.6523	-1.35607e-07
2	1	0	1	0	7381.97	-0.098134	-0.0988968	0.00135754	3	0.000102648	42	16.0521	-1.34256e-07
2	1	0	1	0	7382.37	-0.0941347	-0.0949001	0.00140713	3	0.000103199	42	16.4521	-1.33537e-07
2	1	0	1	0	7382.77	-0.0901354	-0.0909141	0.00145276	3	0.000103769	42	16.8521	-1.32077e-07
2	1	0	1	0	7383.17	-0.0861362	-0.0869299	0.00148918	3	0.000104357	42	17.2519	-1.29455e-07
2	1	0	1	0	7383.57	-0.0821369	-0.0829006	0.0015373	3	0.000104963	42	17.6519	-1.27443e-07
2	1	0	1	0	7383.97	-0.0781376	-0.078905	0.0015771	3	0.000105587	42	18.0519	-1.24441e-07
2	1	0	1	0	7384.37	-0.0741383	-0.0749118	0.0016153	3	0.000106226	42	18.4517	-1.21005e-07
2	1	0	1	0	7384.77	-0.070139	-0.0709032	0.00165963	3	0.000106882	42	18.8517	-1.17673e-07
2	1	0	1	0	7385.17	-0.0661397	-0.0669102	0.00171137	3	0.000107557	42	19.2517	-1.14508e-07
2	1	0	1	0	7385.57	-0.0621404	-0.0629142	0.00176476	3	0.000108253	42	19.6515	-1.11029e-07
2	1	0	1	0	7385.97	-0.0581412	-0.0589179	0.00181186	3	0.00010897	42	20.0515	-1.06751e-07
2	1	0	1	0	7386.37	-0.0541419	-0.0549255	0.00184749	3	0.000109705	42	20.4515	-1.01474e-07
2	1	0	1	0	7386.77	-0.0501426	-0.0509304	0.0019142	3	0.000110455	42	20.8513	-9.74907e-08
2	1	0	1	0	7387.17	-0.0461433	-0.0469322	0.00196916	3	0.00011123	42	21.2513	-9.2417e-08
2	1	0	1	0	7387.57	-0.042144	-0.0429483	0.00201949	3	0.000112025	42	21.6511	-8.67337e-08
2	1	0	1	0	7387.97	-0.0381447	-0.038944	0.00207778	3	0.000112845	42	22.0511	-8.09169e-08
2	1	0	1	0	7388.37	-0.0341454	-0.0349563	0.00213245	3	0.000113686	42	22.4511	-7.45423e-08
2	1	0	1	0	7388.77	-0.0301461	-0.0309473	0.00216848	3	0.000114544	42	22.8509	-6.71087e-08
2	1	0	1	0	7389.17	-0.0261468	-0.0269504	0.00220955	3	0.000115423	42	23.2509	-5.95483e-08
2	1	0	1	0	7389.57	-0.0221476	-0.0229561	0.00227119	3	0.000116322	42	23.6509	-5.21378e-08
2	1	0	1	0	7389.97	-0.0181483	-0.0189569	0.0023274	3	0.000117241	42	24.0507	-4.41204e-08
2	1	0	1	0	7390.37	-0.014149	-0.0149571	0.0023784	3	0.000118182	42	24.4507	-3.55739e-08
2	1	0	1	0	7390.77	-0.0101497	-0.0109534	0.00243157	3	0.000119143	42	24.8507	-2.66341e-08
2	1	0	1	0	7391.17	-0.0061504	-0.00694299	0.00249095	3	0.000120125	42	25.2505	-1.72947e-08
2	1	0	1	0	7391.57	-0.00215111	-0.00292809	0.00254394	3	0.000121132	42	25.6505	-7.44889e-09
2	1	0	1	1	7391.82	-0.000301441	-0.000523733	0.00259426	3	0.000121758	42	25.8957	-1.3587e-09
2	1	0	1	1	7392.22	-0.00430073	-0.0033477	0.00250675	3	0.000122777	42	26.2957	-8.39182e-09
2	1	0	1	1	7392.62	-0.00830002	-0.00731741	0.00241993	3	0.000123763	42	26.6957	-1.77076e-08
2	1	0	1	1	7393.02	-0.0122993	-0.0113196	0.00238782	3	0.000124724	42	27.0955	-2.70291e-08
2	1	0	1	1	7393.42	-0.0162986	-0.01532	0.00233075	3	0.000125668	42	27.4955	-3.57072e-08
2	1	0	1	1	7393.82	-0.0202979	-0.0192972	0.00227417	3	0.000126588	42	27.8953	-4.38852e-08
2	1	0	1	1	7394.22	-0.0242972	-0.0232983	0.00220927	3	0.000127485	42	28.2953	-5.14723e-08
2	1	0	1	1	7394.62	-0.0282965	-0.027289	0.00216455	3	0.00012836	42	28.6953	-5.90684e-08
2	1	0	1	1	7395.02	-0.0322957	-0.0312848	0.00211165	3	0.000129211	42	29.0951	-6.60626e-08
2	1	0	1	1	7395.42	-0.036295	-0.0352967	0.00205128	3	0.000130044	42	29.4951	-7.24034e-08
2	1	0	1	1	7395.82	-0.0402943	-0.03928	0.00200905	3	0.000130856	42	29.8951	-7.89155e-08
2	1	0	1	1	7396.22	-0.0442936	-0.0432886	0.00195051	3	0.000131647	42	30.2949	-8.44346e-08
2	1	0	1	1	7396.62	-0.0482929	-0.0472844	0.00189489	3	0.000132417	42	30.6949	-8.95989e-08
2	1	0	1	1	7397.02	-0.0522922	-0.0512702	0.00184303	3	0.000133166	42	31.0949	-9.44923e-08
2	1	0	1	1	7397.42	-0.0562915	-0.0552997	0.00181024	3	0.000133895	42	31.4947	-1.00106e-07
2	1	0	1	1	7397.82	-0.0602908	-0.0592951	0.00175923	3	0.000134604	42	31.8947	-1.04313e-07
2	1	0	1	1	7398.22	-0.0642901	-0.0632767	0.00170353	3	0.000135296	42	32.2947	-1.07794e-07
2	1	0	1	1	7398.62	-0.0682893	-0.0672772	0.0016591	3	0.000135968	42	32.6945	-1.1162e-07
2	1	0	1	1	7399.02	-0.0722886	-0.0712804	0.00161047	3	0.000136624	42	33.0945	-1.14795e-07
2	1	0	1	1	7399.42	-0.0762884	-0.0752895	0.00156491	3	0.000137259	42	33.4944	-1.17821e-07
2	1	0	1	1	7399.82	-0.0802872	-0.0792784	0.00151089	3	0.000137871	42	33.8943	-1.19781e-07
2	1	0	1	1	7400.22	-0.0842865	-0.0832583	0.00146681	3	0.000138468	42	34.2943	-1.22124e-07
2	1	0	1	1	7400.62	-0.0882858	-0.0872583	0.00142959	3	0.000139049	42	34.6941	-1.24744e-07
2	1	0	1	1	7401.02	-0.0922851	-0.091262	0.00138038	3	0.000139612	42	35.0941	-1.25976e-07
2	1	0	1	1	7401.42	-0.0962844	-0.0952654	0.00134682	3	0.000140158	42	35.4941	-1.28305e-07
2	1	0	1	1	7401.81	-0.100284	-0.0992649	0.00130183	3	0.000140687	42	35.8939	-1.29226e-07
2	1	0	1	1	7402.21	-0.104283	-0.103257	0.00126318	3	0.000141199	42	36.2939	-1.30433e-07
2	1	0	1	1	7402.61	-0.108282	-0.107257	0.00122842	3	0.000141699	42	36.6939	-1.31756e-07
2	1	0	1	1	7403.01	-0.112282	-0.111249	0.0011761	3	0.00014218	42	37.0937	-1.3084e-07
2	1	0	1	1	7403.41	-0.116281	-0.115258	0.0011416	3	0.000142642	42	37.4937	-1.31578e-07
2	1	0	1	1	7403.81	-0.12028	-0.119282	0.00110971	3	0.000143093	42	37.8937	-1.32369e-07
2	1	0	1	1	7404.21	-0.124279	-0.123264	0.00106543	3	0.000143527	42	38.2935	-1.31329e-07
2	1	0	1	1	7404.61	-0.128279	-0.127253	0.00102113	3	0.000143945	42	38.6935	-1.29941e-07
2	1	0	1	1	7405.01	-0.132278	-0.131276	0.000987741	3	0.000144348	42	39.0934	-1.29667e-07
2	1	0	1	1	7405.41	-0.136277	-0.135247	0.000947876	3	0.000144734	42	39.4933	-1.28198e-07
2	1	0	1	1	7405.81	-0.140277	-0.139238	0.000915016	3	0.000145108	42	39.8933	-1.27405e-07
2	1	0	1	1	7406.21	-0.144276	-0.143255	0.000872515	3	0.000145464	42	40.2931	-1.24993e-07
2	1	0	1	1	7406.61	-0.148275	-0.147254	0.000840261	3	0.000145809	42	40.6931	-1.23732e-07
2	1	0	1	1	7407.01	-0.152274	-0.151258	0.000808535	3	0.000146138	42	41.0931	-1.22297e-07
2	1	0	1	1	7407.41	-0.156274	-0.155239	0.000767356	3	0.000146453	42	41.4929	-1.19123e-07
2	1	0	1	1	7407.81	-0.160273	-0.159267	0.000733934	3	0.000146753	42	41.8929	-1.16892e-07
2	1	0	1	1	7408.21	-0.164272	-0.163266	0.000703059	3	0.00014704	42	42.2929	-1.14786e-07
2	1	0	1	1	7408.61	-0.168272	-0.16725	0.00066664	3	0.000147314	42	42.6927	-1.11495e-07
2	1	0	1	1	7409.01	-0.172271	-0.171231	0.000626884	3	0.000147573	42	43.0927	-1.07342e-07
2	1	0	1	1	7409.41	-0.17627	-0.175229	0.000602307	3	0.00014782	42	43.4927	-1.05542e-07
2	1	0	1	1	7409.81	-0.180269	-0.179229	0.000570444	3	0.000148054	42	43.8925	-1.0224e-07
2	1	0	1	1	7410.21	-0.184269	-0.183224	0.000534689	3	0.000148275	42	44.2925	-9.79676e-08
2	1	0	1	1	7410.61	-0.188267	-0.187247	0.000504602	3	0.000148483	42	44.6924	-9.44849e-08
2	1	0	1	1	7411.01	-0.192267	-0.191231	0.000471275	3	0.000148678	42	45.0923	-9.01223e-08
2	1	0	1	1	7411.62	-0.198291	-0.19726	0.000429457	3	0.000148952	42	45.6947	-8.47148e-08
2	1	0	1	1	7412.22	-0.204315	-0.203305	0.000382664	3	0.000149202	43	46.2971	-7.77976e-08
2	1	0	1	1	7412.62	-0.208314	-0.207308	0.000353905	3	0.000149349	43	46.6971	-7.33671e-08
2	1	0	1	1	7413.02	-0.212314	-0.211308	0.000325685	3	0.000149484	43	47.0969	-6.88199e-08
2	1	0	1	1	7413.42	-0.216313	-0.215307	0.000296335	3	0.000149608	43	47.4969	-6.38029e-08
2	1	0	1	1	7413.82	-0.220312	-0.219306	0.000267702	3	0.000149721	43	47.8969	-5.87085e-08
2	1	0	1	1	7414.22	-0.224312	-0.223317	0.00023811	3	0.000149822	43	48.2967	-5.3174e-08
2	1	0	1	1	7414.62	-0.228311	-0.227317	0.000210643	3	0.000149911	43	48.6967	-4.78828e-08
2	1	0	1	1	7415.02	-0.23231	-0.2313	0.000181498	3	0.00014999	43	49.0967	-4.19806e-08
2	1	0	1	1	7415.42	-0.236309	-0.235293	0.000154765	3	0.000150057	43	49.4965	-3.64151e-08
2	1	0	1	1	7415.82	-0.240309	-0.23928	0.000126726	3	0.000150113	43	49.8965	-3.0323e-08
2	1	0	1	1	7416.22	-0.244308	-0.24329	9.99445e-05	3	0.000150159	43	50.2965	-2.43155e-08
2	1	0	1	1	7416.62	-0.248307	-0.247284	7.32978e-05	3	0.000150193	43	50.6963	-1.81254e-08
2	1	0	1	1	7417.02	-0.252307	-0.251272	4.62056e-05	3	0.000150217	43	51.0963	-1.16102e-08
2	0	0	1	1	7417.82	-0.260305	-0.259289	-6.2094e-06	3	0.000150238	44	0.05	1.61003e-09
2	0	0	1	1	7418.22	-0.264304	-0.263268	-3.14797e-05	3	0.000150231	44	0.45	8.28759e-09
2	0	0	1	1	7418.62	-0.268304	-0.267278	-5.82961e-05	3	0.000150213	44	0.8498	1.55813e-08
2	0	0	1	1	7419.02	-0.272303	-0.271264	-8.36513e-05	3	0.000150184	44	1.2498	2.26916e-08
2	0	0	1	1	7419.62	-0.278302	-0.27727	-0.000122222	3	0.000150124	44	1.8497	3.38883e-08
2	0	0	1	1	7420.22	-0.284301	-0.283246	-0.000160289	3	0.000150043	43	2.4496	4.54014e-08
2	0	0	1	1	7420.62	-0.2883	-0.287244	-0.000185804	3	0.000149974	43	2.8496	5.33712e-08
2	0	0	1	1	7421.02	-0.292299	-0.291242	-0.000212988	3	0.000149894	43	3.2494	6.2031e-08
2	0	0	1	1	7421.42	-0.296299	-0.295258	-0.000237531	3	0.000149804	43	3.6494	7.01328e-08
2	0	0	1	1	7421.82	-0.300298	-0.299239	-0.000262834	3	0.000149704	43	4.0494	7.86499e-08
2	0	0	1	1	7422.22	-0.304297	-0.303239	-0.000288413	3	0.000149594	43	4.4492	8.74582e-08
2	0	0	1	1	7422.62	-0.308297	-0.307222	-0.000312768	3	0.000149474	43	4.8492	9.60892e-08
2	0	0	1	1	7423.02	-0.312296	-0.311218	-0.00033758	3	0.000149344	43	5.249	1.05061e-07
2	0	0	1	1	7423.42	-0.316295	-0.315231	-0.00036307	3	0.000149203	43	5.649	1.14451e-07
2	0	0	1	1	7423.82	-0.320294	-0.319236	-0.000386853	3	0.000149053	43	6.049	1.23497e-07
2	0	0	1	1	7424.13	-0.323469	-0.32238	-0.000411625	3	0.000148928	43	6.3643	1.327e-07