File: data_dir/600_B_immertest4/600_B_10_CV_C03.mpt
EC-Lab ASCII FILE
Nb header lines : 62

Cyclic Voltammetry

Run on channel : 3 (SN 13150)
User :
Electrode connection : standard
Potential control : Ewe
Ewe ctrl range : min = -1.00 V, max = 1.00 V
Ewe,I filtering : 5 Hz
Safety Limits :
	Do not start on E overload
Channel : Floating
Acquisition started on : 07/01/2024 16:51:05.709
Loaded Setting File :  C:\Users\mAtsuhitA\Desktop\Oyafuso\20240624_???????4\1540_A.mps
Saved on :
	File : 600_B_10_CV_C03.mpr
	Directory : C:\Users\mAtsuhitA\Desktop\Oyafuso\20240624_???????4\600_B\
	Host : 192.109.209.100
Device : VSP-300 (SN 0834)
Address : 192.109.209.128
EC-Lab for windows v11.50 (software)
Internet server v11.50 (firmware)
Command interpretor v11.50 (firmware)
Electrode material :
Initial state :
Electrolyte :
Comments :
Cable : standard
Electrode surface area : 0.001 cm2
Characteristic mass : 0.001 g
Equivalent Weight : 0.000 g/eq.
Density : 0.000 g/cm3
Volume (V) : 0.001 cm3
Text export
   Mode : Standard
   Time format : Elapsed
Cycle Definition : Charge/Discharge alternance
Ei (V)              0.000
vs.                 Eoc
dE/dt               10.000
dE/dt unit          mV/s
E1 (V)              -0.050
vs.                 Eoc
Step percent        50
N                   10
E range min (V)     -1.000
E range max (V)     1.000
I Range             Auto
I Range min         Unset
I Range max         Unset
I Range init        Unset
Bandwidth           8
E2 (V)              0.000
vs.                 Ref
nc cycles           2
Reverse Scan        1
Ef (V)              0.000
vs.                 Eoc

mode	ox/red	error	control changes	counter inc.	time/s	control/V	Ewe/V	<I>/mA	cycle number	(Q-Qo)/C	I Range	step time/s	P/W
2	1	0	1	0	278848	-0.25878	-0.25912	2.03909e-06	1	0.0000000E+000	45	278848	-5.2837e-10
2	0	0	1	0	278848	-0.266054	-0.265146	-4.24399e-05	1	-1.04995e-08	44	0.6	1.12528e-08
2	0	0	1	0	278849	-0.269553	-0.268651	-5.33004e-05	1	-2.73711e-08	44	0.949899	1.43192e-08
2	0	0	1	0	278849	-0.273053	-0.272135	-6.42341e-05	1	-4.79059e-08	44	1.2998	1.74803e-08
2	0	0	1	0	278849	-0.276552	-0.275629	-7.54866e-05	1	-7.23829e-08	44	1.6498	2.08063e-08
2	0	0	1	0	278850	-0.280052	-0.279138	-8.58725e-05	1	-1.00608e-07	44	1.9998	2.39702e-08
2	0	0	1	0	278850	-0.283551	-0.282593	-9.52803e-05	1	-1.32323e-07	44	2.3496	2.69256e-08
2	0	0	1	0	278850	-0.28705	-0.286085	-0.000105708	1	-1.67536e-07	44	2.6996	3.02415e-08
2	0	0	1	0	278851	-0.294549	-0.293598	-0.000130198	1	-2.53462e-07	43	3.4494	3.82261e-08
2	0	0	1	0	278852	-0.298048	-0.297107	-0.00013965	1	-3.00944e-07	43	3.7994	4.14909e-08
2	0	0	1	0	278852	-0.301548	-0.300613	-0.000149941	1	-3.51518e-07	43	4.1494	4.50742e-08
2	0	0	1	0	278852	-0.305047	-0.304098	-0.000160251	1	-4.056e-07	43	4.4992	4.87318e-08
2	0	0	1	0	278853	-0.308522	-0.307568	-0.000173231	1	-4.63437e-07	43	4.8467	5.32804e-08
2	0	0	1	0	278853	-0.305997	-0.306742	-0.000139841	1	-5.1243e-07	43	5.1498	4.2895e-08
2	0	0	1	0	278853	-0.302498	-0.303244	-0.000113076	1	-5.5595e-07	43	5.4996	3.42895e-08
2	0	0	1	0	278854	-0.298998	-0.299776	-9.72511e-05	1	-5.92501e-07	43	5.8496	2.91535e-08
2	0	0	1	0	278854	-0.295499	-0.296264	-8.43583e-05	1	-6.24246e-07	43	6.1996	2.49924e-08
2	0	0	1	0	278854	-0.291999	-0.292799	-7.32492e-05	1	-6.51811e-07	43	6.5495	2.14473e-08
2	0	0	1	0	278855	-0.2885	-0.289263	-6.1878e-05	1	-6.75376e-07	43	6.89939	1.7899e-08
2	0	0	1	0	278855	-0.285001	-0.285769	-5.0858e-05	1	-6.95101e-07	43	7.24939	1.45336e-08
2	0	0	1	0	278856	-0.277502	-0.278309	-2.70149e-05	1	-7.26973e-07	44	7.99919	7.51847e-09
2	0	0	1	0	278856	-0.274003	-0.274801	-1.6771e-05	1	-7.34657e-07	44	8.34919	4.60869e-09
2	0	0	1	0	278856	-0.270503	-0.271301	-6.7364e-06	1	-7.38768e-07	44	8.69919	1.82759e-09
2	1	0	1	0	278858	-0.259005	-0.259817	2.68711e-05	1	-7.31876e-07	44	0.35	-6.98158e-09
2	1	0	1	0	278858	-0.255506	-0.256294	3.71339e-05	1	-7.20612e-07	44	0.699799	-9.51719e-09
2	1	0	1	0	278858	-0.252007	-0.252805	4.70599e-05	1	-7.05836e-07	44	1.0498	-1.1897e-08
2	1	0	1	0	278859	-0.248507	-0.249307	5.64665e-05	1	-6.87616e-07	44	1.3998	-1.40775e-08
2	1	0	1	0	278859	-0.245008	-0.245798	6.73711e-05	1	-6.65845e-07	44	1.7496	-1.65597e-08
2	1	0	1	0	278859	-0.241508	-0.242315	7.78388e-05	1	-6.40425e-07	44	2.0996	-1.88615e-08
2	1	0	1	0	278860	-0.238009	-0.238819	8.81372e-05	1	-6.11457e-07	44	2.4496	-2.10489e-08
2	1	0	1	0	278860	-0.23451	-0.235335	9.94124e-05	1	-5.78878e-07	44	2.7994	-2.33952e-08
2	1	0	1	0	278860	-0.23101	-0.231835	0.000108651	1	-5.42303e-07	44	3.1494	-2.5189e-08
2	1	0	1	0	278861	-0.223512	-0.224327	0.000131236	1	-4.54805e-07	43	3.8992	-2.94396e-08
2	1	0	1	0	278861	-0.220012	-0.220812	0.000141115	1	-4.07268e-07	43	4.2492	-3.11599e-08
2	1	0	1	0	278862	-0.216513	-0.217329	0.000151171	1	-3.56175e-07	43	4.5992	-3.2854e-08
2	1	0	1	0	278862	-0.213014	-0.213833	0.000160567	1	-3.01388e-07	43	4.949	-3.43345e-08
2	1	0	1	0	278863	-0.209514	-0.210341	0.00017181	1	-2.43098e-07	43	5.299	-3.61387e-08
2	1	0	1	0	278863	-0.206015	-0.206831	0.00018218	1	-1.80964e-07	43	5.649	-3.76804e-08
2	1	0	1	0	278863	-0.202516	-0.203328	0.000192736	1	-1.15614e-07	43	5.9989	-3.91885e-08
2	1	0	1	0	278864	-0.199016	-0.199848	0.000204286	1	-4.61616e-08	43	6.3488	-4.08261e-08
2	1	0	1	0	278864	-0.195517	-0.196355	0.000212301	1	2.67091e-08	43	6.6988	-4.16864e-08
2	1	0	1	0	278864	-0.192017	-0.192874	0.000223509	1	1.02915e-07	43	7.04879	-4.31092e-08
2	1	0	1	0	278865	-0.188518	-0.189359	0.000235204	1	1.83242e-07	43	7.39859	-4.4538e-08
2	1	0	1	0	278865	-0.185019	-0.185862	0.000245849	1	2.67449e-07	43	7.74859	-4.56941e-08
2	1	0	1	0	278865	-0.181519	-0.18236	0.000254759	1	3.54865e-07	43	8.09859	-4.64579e-08
2	1	0	1	0	278866	-0.17802	-0.178874	0.000267566	1	4.46314e-07	43	8.44839	-4.78604e-08
2	1	0	1	0	278866	-0.17452	-0.175371	0.000276927	1	5.41697e-07	43	8.79839	-4.85651e-08
2	1	0	1	0	278866	-0.171021	-0.171881	0.000287987	1	6.40475e-07	43	9.14839	-4.94995e-08
2	1	0	1	0	278867	-0.167522	-0.168391	0.000298498	1	7.43063e-07	43	9.49819	-5.02643e-08
2	1	0	1	0	278867	-0.164022	-0.16485	0.000309505	1	8.49583e-07	43	9.84819	-5.10218e-08
2	1	0	1	0	278867	-0.160523	-0.1614	0.000322494	1	9.60282e-07	43	10.1982	-5.20504e-08
2	1	0	1	0	278868	-0.157024	-0.157922	0.000332366	1	1.07454e-06	43	10.548	-5.24878e-08
2	1	0	1	0	278868	-0.153524	-0.154411	0.00034305	1	1.19276e-06	43	10.898	-5.29709e-08
2	1	0	1	0	278868	-0.150025	-0.150888	0.00035189	1	1.31429e-06	43	11.248	-5.30959e-08
2	1	0	1	0	278869	-0.146525	-0.147419	0.000364874	1	1.43974e-06	43	11.598	-5.37893e-08
2	1	0	1	0	278869	-0.143026	-0.143892	0.000372996	1	1.56898e-06	43	11.9478	-5.36713e-08
2	1	0	1	0	278870	-0.139527	-0.140393	0.000386711	1	1.70252e-06	43	12.2978	-5.42914e-08
2	1	0	1	0	278870	-0.136027	-0.136903	0.000393794	1	1.83951e-06	43	12.6478	-5.39115e-08
2	1	0	1	0	278870	-0.132528	-0.1334	0.00041206	1	1.9807e-06	43	12.9976	-5.49687e-08
2	1	0	1	0	278871	-0.129029	-0.129859	0.000420052	1	2.12652e-06	43	13.3476	-5.45474e-08
2	1	0	1	0	278871	-0.125529	-0.126399	0.000433482	1	2.27599e-06	43	13.6976	-5.47918e-08
2	1	0	1	0	278871	-0.12203	-0.122932	0.000443063	1	2.42936e-06	43	14.0474	-5.44665e-08
2	1	0	1	0	278872	-0.11853	-0.119419	0.00045766	1	2.58689e-06	43	14.3974	-5.46533e-08
2	1	0	1	0	278872	-0.115031	-0.115932	0.000469514	1	2.7491e-06	43	14.7474	-5.44319e-08
2	1	0	1	0	278872	-0.111532	-0.112428	0.000479997	1	2.91544e-06	43	15.0972	-5.39653e-08
2	1	0	1	0	278873	-0.108032	-0.108913	0.00048894	1	3.08581e-06	43	15.4472	-5.32518e-08
2	1	0	1	0	278873	-0.104533	-0.105417	0.000506638	1	3.26047e-06	43	15.7972	-5.34081e-08
2	1	0	1	0	278873	-0.101034	-0.101921	0.000516623	1	3.43923e-06	43	16.147	-5.2655e-08
2	1	0	1	0	278874	-0.0975341	-0.0984222	0.000534219	1	3.62305e-06	43	16.497	-5.2579e-08
2	1	0	1	0	278874	-0.0940348	-0.0949169	0.00054229	1	3.81103e-06	43	16.847	-5.14725e-08
2	1	0	1	0	278874	-0.0905354	-0.0913982	0.000553116	1	4.00258e-06	43	17.197	-5.05538e-08
2	1	0	1	0	278875	-0.087036	-0.0879382	0.000566227	1	4.19841e-06	43	17.5468	-4.9793e-08
2	1	0	1	0	278875	-0.0835366	-0.084414	0.000587082	1	4.39923e-06	43	17.8968	-4.95579e-08
2	1	0	1	0	278875	-0.0800372	-0.0809265	0.00059451	1	4.60608e-06	43	18.2468	-4.81116e-08
2	1	0	1	0	278876	-0.0765379	-0.0774496	0.000601804	1	4.81556e-06	43	18.5966	-4.66094e-08
2	1	0	1	0	278876	-0.0730385	-0.0739429	0.00062162	1	5.02994e-06	43	18.9466	-4.59644e-08
2	1	0	1	0	278877	-0.0695391	-0.0704433	0.000633599	1	5.24949e-06	43	19.2966	-4.46328e-08
2	1	0	1	0	278877	-0.0660397	-0.066928	0.000649658	1	5.47391e-06	43	19.6464	-4.34803e-08
2	1	0	1	0	278877	-0.0625404	-0.0634415	0.000660612	1	5.70348e-06	43	19.9964	-4.19103e-08
2	1	0	1	0	278878	-0.059041	-0.0599555	0.000671681	1	5.93635e-06	43	20.3464	-4.0271e-08
2	1	0	1	0	278878	-0.0555416	-0.0564654	0.000681434	1	6.17376e-06	43	20.6962	-3.84775e-08
2	1	0	1	0	278878	-0.0520422	-0.0529565	0.000706426	1	6.41772e-06	43	21.0462	-3.74098e-08
2	1	0	1	0	278879	-0.0485429	-0.0494704	0.000721284	1	6.66657e-06	43	21.3962	-3.56822e-08
2	1	0	1	0	278879	-0.0450428	-0.0459889	0.000735297	1	6.92098e-06	43	21.7461	-3.38155e-08
2	1	0	1	0	278879	-0.0415441	-0.0424502	0.000743259	1	7.18065e-06	43	22.096	-3.15515e-08
2	1	0	1	0	278880	-0.0380447	-0.0389813	0.000760273	1	7.44394e-06	43	22.446	-2.96364e-08
2	1	0	1	0	278880	-0.0345453	-0.0354715	0.000776167	1	7.7134e-06	43	22.796	-2.75319e-08
2	1	0	1	0	278880	-0.031046	-0.0319772	0.000794843	1	7.98762e-06	43	23.1458	-2.54169e-08
2	1	0	1	0	278881	-0.0275466	-0.0284634	0.000803221	1	8.26852e-06	43	23.4958	-2.28624e-08
2	1	0	1	0	278881	-0.0240472	-0.0249958	0.000822289	1	8.55286e-06	43	23.8458	-2.05538e-08
2	1	0	1	0	278881	-0.0205478	-0.0214796	0.000831234	1	8.84291e-06	43	24.1956	-1.78546e-08
2	1	0	1	0	278882	-0.0170485	-0.0179981	0.000851086	1	9.13775e-06	43	24.5456	-1.53179e-08
2	1	0	1	0	278882	-0.0135491	-0.0145078	0.000865374	1	9.4372e-06	43	24.8956	-1.25547e-08
2	1	0	1	0	278882	-0.0100497	-0.0110033	0.000870505	1	9.74024e-06	43	25.2454	-9.57842e-09
2	1	0	1	0	278883	-0.00655033	-0.00751385	0.000890263	1	1.00485e-05	43	25.5954	-6.6893e-09
2	1	0	1	0	278883	-0.00305095	-0.00401953	0.000903356	1	1.03631e-05	43	25.9454	-3.63107e-09
2	1	0	1	1	278883	-2.35008e-05	-0.00096922	0.000919857	1	1.06397e-05	43	26.2483	-8.91544e-10
2	1	0	1	1	278884	-0.00325092	-0.00247094	0.000874643	1	1.09353e-05	43	26.5756	-2.16119e-09
2	1	0	1	1	278884	-0.00675029	-0.00596164	0.000832219	1	1.12338e-05	43	26.9256	-4.96139e-09
2	1	0	1	1	278885	-0.0102497	-0.00943771	0.00081603	1	1.15224e-05	43	27.2756	-7.70146e-09
2	1	0	1	1	278885	-0.013749	-0.0129274	0.000796381	1	1.1804e-05	43	27.6254	-1.02951e-08
2	1	0	1	1	278885	-0.0172484	-0.016424	0.000774228	1	1.20786e-05	43	27.9754	-1.27159e-08
2	1	0	1	1	278886	-0.0207478	-0.019913	0.0007538	1	1.2346e-05	43	28.3254	-1.50104e-08
2	1	0	1	1	278886	-0.0242472	-0.0234126	0.000735988	1	1.26059e-05	43	28.6752	-1.72314e-08
2	1	0	1	1	278886	-0.0277466	-0.0269354	0.000716098	1	1.28605e-05	43	29.0252	-1.92884e-08
2	1	0	1	1	278887	-0.0312459	-0.0304127	0.000703505	1	1.31083e-05	43	29.3752	-2.13955e-08
2	1	0	1	1	278887	-0.0347453	-0.0339352	0.000680341	1	1.33492e-05	43	29.725	-2.30875e-08
2	1	0	1	1	278887	-0.0382447	-0.0374117	0.00066208	1	1.35832e-05	43	30.075	-2.47696e-08
2	1	0	1	1	278888	-0.0417441	-0.0409029	0.000646558	1	1.38123e-05	43	30.425	-2.64461e-08
2	1	0	1	1	278888	-0.0452439	-0.0444009	0.000626175	1	1.40347e-05	43	30.7749	-2.78028e-08
2	1	0	1	1	278888	-0.0487428	-0.0479025	0.000609204	1	1.42496e-05	43	31.1248	-2.91824e-08
2	1	0	1	1	278889	-0.0522422	-0.051396	0.000590387	1	1.44595e-05	43	31.4748	-3.03435e-08
2	1	0	1	1	278889	-0.0557416	-0.0548909	0.000577552	1	1.4664e-05	43	31.8248	-3.17024e-08
2	1	0	1	1	278889	-0.059241	-0.0583993	0.000566688	1	1.48629e-05	43	32.1746	-3.30942e-08
2	1	0	1	1	278890	-0.0627403	-0.0618738	0.00054568	1	1.50574e-05	43	32.5246	-3.37633e-08
2	1	0	1	1	278890	-0.0662397	-0.0653741	0.000530902	1	1.52455e-05	43	32.8746	-3.47072e-08
2	1	0	1	1	278890	-0.0697391	-0.0688809	0.000516103	1	1.54288e-05	43	33.2244	-3.55497e-08
2	1	0	1	1	278891	-0.0732384	-0.0723687	0.000500309	1	1.56063e-05	43	33.5744	-3.62067e-08
2	1	0	1	1	278891	-0.0767378	-0.0758761	0.000486391	1	1.57799e-05	43	33.9244	-3.69055e-08
2	1	0	1	1	278891	-0.0802372	-0.0793758	0.000477833	1	1.59486e-05	43	34.2742	-3.79284e-08
2	1	0	1	1	278892	-0.0837366	-0.0828718	0.000461617	1	1.61126e-05	43	34.6242	-3.8255e-08
2	1	0	1	1	278892	-0.087236	-0.0863438	0.000447663	1	1.62716e-05	43	34.9742	-3.86529e-08
2	1	0	1	1	278893	-0.0907353	-0.0898697	0.000435164	1	1.64258e-05	43	35.324	-3.9108e-08
2	1	0	1	1	278893	-0.0942347	-0.0933668	0.000422443	1	1.65763e-05	43	35.674	-3.94421e-08
2	1	0	1	1	278893	-0.0977341	-0.0968683	0.000409175	1	1.67219e-05	43	36.024	-3.96361e-08
2	1	0	1	1	278894	-0.101233	-0.100363	0.00039523	1	1.68627e-05	43	36.3739	-3.96663e-08
2	1	0	1	1	278894	-0.104733	-0.103849	0.000385465	1	1.69996e-05	43	36.7238	-4.00303e-08
2	1	0	1	1	278894	-0.108232	-0.107356	0.000373592	1	1.71323e-05	43	37.0738	-4.01071e-08
2	1	0	1	1	278895	-0.111732	-0.110876	0.000356187	1	1.726e-05	43	37.4238	-3.94925e-08
2	1	0	1	1	278895	-0.115231	-0.114346	0.000341882	1	1.73822e-05	43	37.7736	-3.90929e-08
2	1	0	1	1	278895	-0.11873	-0.117864	0.000335398	1	1.75016e-05	43	38.1236	-3.95314e-08
2	1	0	1	1	278896	-0.12223	-0.121348	0.000321316	1	1.76161e-05	43	38.4736	-3.8991e-08
2	1	0	1	1	278896	-0.125729	-0.124836	0.000310762	1	1.77268e-05	43	38.8234	-3.87944e-08
2	1	0	1	1	278896	-0.129228	-0.128344	0.000302197	1	1.78341e-05	43	39.1734	-3.87851e-08
2	1	0	1	1	278897	-0.132728	-0.131841	0.00029179	1	1.79386e-05	43	39.5234	-3.84698e-08
2	1	0	1	1	278897	-0.136227	-0.135333	0.000278959	1	1.80391e-05	43	39.8732	-3.77524e-08
2	1	0	1	1	278897	-0.139727	-0.138874	0.000271987	1	1.81355e-05	43	40.2232	-3.77717e-08
2	1	0	1	1	278898	-0.143226	-0.142341	0.000259844	1	1.82282e-05	43	40.5732	-3.69865e-08
2	1	0	1	1	278898	-0.146725	-0.14584	0.000247634	1	1.83171e-05	43	40.923	-3.61149e-08
2	1	0	1	1	278898	-0.150225	-0.14932	0.000237065	1	1.84014e-05	43	41.273	-3.53985e-08
2	1	0	1	1	278899	-0.153724	-0.15286	0.000227483	1	1.84826e-05	43	41.623	-3.4773e-08
2	1	0	1	1	278899	-0.157223	-0.156342	0.000219884	1	1.85606e-05	43	41.9729	-3.4377e-08
2	1	0	1	1	278900	-0.160723	-0.159807	0.000207943	1	1.86357e-05	43	42.3228	-3.32307e-08
2	1	0	1	1	278900	-0.164222	-0.163328	0.000196073	1	1.87069e-05	43	42.6728	-3.20242e-08
2	1	0	1	1	278900	-0.167722	-0.166823	0.000187525	1	1.87743e-05	43	43.0228	-3.12835e-08
2	1	0	1	1	278901	-0.171221	-0.170318	0.000178668	1	1.88384e-05	43	43.3726	-3.04304e-08
2	1	0	1	1	278901	-0.17472	-0.173802	0.000168797	1	1.88991e-05	43	43.7226	-2.93374e-08
2	1	0	1	1	278901	-0.17822	-0.177334	0.000158832	1	1.89567e-05	43	44.0726	-2.81663e-08
2	1	0	1	1	278902	-0.181719	-0.180802	0.000151528	1	1.90113e-05	43	44.4224	-2.73965e-08
2	1	0	1	1	278902	-0.185219	-0.184322	0.000142533	1	1.90628e-05	43	44.7724	-2.62719e-08
2	1	0	1	1	278902	-0.188718	-0.18782	0.000131909	1	1.9111e-05	43	45.1224	-2.47752e-08
2	1	0	1	1	278903	-0.192217	-0.191303	0.000122365	1	1.91554e-05	43	45.4722	-2.34087e-08
2	1	0	1	1	278903	-0.195717	-0.194843	0.000113971	1	1.91968e-05	43	45.8222	-2.22064e-08
2	1	0	1	1	278903	-0.199216	-0.198332	0.000103293	1	1.92349e-05	43	46.1722	-2.04862e-08
2	1	0	1	1	278904	-0.202715	-0.201839	9.66715e-05	1	1.92698e-05	43	46.522	-1.95121e-08
2	1	0	1	1	278904	-0.206215	-0.205305	8.73288e-05	1	1.93019e-05	43	46.872	-1.79291e-08
2	1	0	1	1	278904	-0.209714	-0.20882	7.8577e-05	1	1.93307e-05	43	47.222	-1.64085e-08
2	1	0	1	1	278905	-0.213214	-0.21229	6.96949e-05	1	1.93567e-05	43	47.572	-1.47955e-08
2	1	0	1	1	278905	-0.216713	-0.2158	6.15926e-05	1	1.93796e-05	43	47.9218	-1.32917e-08
2	1	0	1	1	278905	-0.220212	-0.219283	5.20386e-05	1	1.93993e-05	43	48.2718	-1.14112e-08
2	1	0	1	1	278906	-0.227711	-0.226819	3.3097e-05	1	1.94333e-05	44	49.0216	-7.50702e-09
2	1	0	1	1	278907	-0.23121	-0.23032	2.45192e-05	1	1.94434e-05	44	49.3716	-5.64727e-09
2	1	0	1	1	278907	-0.23471	-0.233795	1.62945e-05	1	1.94505e-05	44	49.7216	-3.80957e-09
2	1	0	1	1	278907	-0.238209	-0.237317	7.36508e-06	1	1.94546e-05	44	50.0714	-1.74786e-09
2	0	0	1	1	278908	-0.249707	-0.248809	-2.12309e-05	1	1.94501e-05	44	0.5498	5.28244e-09
2	0	0	1	1	278909	-0.253206	-0.252285	-3.05129e-05	1	1.9441e-05	44	0.899799	7.69794e-09
2	0	0	1	1	278909	-0.256706	-0.255783	-3.90987e-05	1	1.9429e-05	44	1.2498	1.00008e-08
2	0	0	1	1	278909	-0.259605	-0.258688	-4.69549e-05	2	1.94165e-05	44	1.5396	1.21467e-08
2	0	0	1	1	278910	-0.263105	-0.262197	-5.5751e-05	2	1.93986e-05	44	1.8896	1.46177e-08
2	0	0	1	1	278910	-0.266604	-0.265682	-6.29451e-05	2	1.93779e-05	44	2.2396	1.67234e-08
2	0	0	1	1	278910	-0.270103	-0.269203	-7.26112e-05	2	1.93541e-05	44	2.5894	1.95472e-08
2	0	0	1	1	278911	-0.273603	-0.272717	-8.07442e-05	2	1.93269e-05	44	2.9394	2.20203e-08
2	0	0	1	1	278911	-0.277102	-0.276197	-9.15621e-05	2	1.92965e-05	44	3.2894	2.52892e-08
2	0	0	1	1	278912	-0.280602	-0.2797	-0.000100623	2	1.92627e-05	44	3.6394	2.81442e-08
2	0	0	1	1	278912	-0.284101	-0.283165	-0.000109312	2	1.92259e-05	44	3.9892	3.09532e-08
2	0	0	1	1	278913	-0.2916	-0.290682	-0.000130194	2	1.9139e-05	43	4.7392	3.78451e-08
2	0	0	1	1	278913	-0.295099	-0.29419	-0.000137944	2	1.90927e-05	43	5.089	4.05818e-08
2	0	0	1	1	278913	-0.298598	-0.297645	-0.000148639	2	1.90423e-05	43	5.439	4.42416e-08
2	0	0	1	1	278914	-0.302098	-0.301176	-0.000156136	2	1.89893e-05	43	5.789	4.70244e-08
2	0	0	1	1	278914	-0.305597	-0.304684	-0.000166351	2	1.89327e-05	43	6.1388	5.06846e-08
2	0	0	1	1	278914	-0.308771	-0.307836	-0.000173107	2	1.88788e-05	43	6.4569	5.32884e-08
2	0	0	1	1	278915	-0.305497	-0.306279	-0.000136027	2	1.8827e-05	43	6.78439	4.16623e-08
2	0	0	1	1	278915	-0.301998	-0.302772	-0.000112937	2	1.87841e-05	43	7.13419	3.41942e-08
2	0	0	1	1	278915	-0.298498	-0.299284	-9.93344e-05	2	1.87469e-05	43	7.48419	2.97292e-08
2	0	0	1	1	278916	-0.294999	-0.295788	-8.70456e-05	2	1.87147e-05	43	7.83419	2.57471e-08
2	0	0	1	1	278916	-0.2915	-0.292279	-7.61536e-05	2	1.86863e-05	43	8.18399	2.22581e-08
2	0	0	1	1	278916	-0.288	-0.288769	-6.53064e-05	2	1.86614e-05	43	8.53399	1.88585e-08
2	0	0	1	1	278917	-0.284501	-0.28531	-5.4837e-05	2	1.86404e-05	43	8.88399	1.56455e-08
2	0	0	1	1	278917	-0.281002	-0.281813	-4.59356e-05	2	1.86229e-05	43	9.23389	1.29452e-08
2	0	0	1	1	278918	-0.273503	-0.274312	-2.42302e-05	2	1.85945e-05	44	9.98379	6.64664e-09
2	0	0	1	1	278918	-0.270003	-0.270835	-1.41152e-05	2	1.8588e-05	44	10.3338	3.82288e-09
2	0	0	1	1	278919	-0.266504	-0.267318	-4.60988e-06	2	1.85847e-05	44	10.6836	1.23231e-09
2	1	0	1	1	278920	-0.255006	-0.255837	2.6715e-05	2	1.85932e-05	44	0.5998	-6.83469e-09
2	1	0	1	1	278920	-0.251507	-0.252326	3.70543e-05	2	1.86044e-05	44	0.949799	-9.34977e-09
2	1	0	1	1	278920	-0.248007	-0.248793	4.59758e-05	2	1.86188e-05	44	1.2998	-1.14385e-08
2	1	0	1	1	278921	-0.244508	-0.245333	5.5238e-05	2	1.86366e-05	44	1.6496	-1.35517e-08
2	1	0	1	1	278921	-0.241009	-0.241858	6.47719e-05	2	1.86575e-05	44	1.9996	-1.56656e-08
2	1	0	1	1	278921	-0.237509	-0.238342	7.41131e-05	2	1.8682e-05	44	2.3496	-1.76643e-08
2	1	0	1	1	278922	-0.23401	-0.234837	8.32555e-05	2	1.87095e-05	44	2.6994	-1.95515e-08
2	1	0	1	1	278922	-0.23051	-0.231326	9.27445e-05	2	1.87403e-05	44	3.0494	-2.14542e-08
2	1	0	1	1	278923	-0.227011	-0.227826	0.000102997	2	1.87743e-05	44	3.3994	-2.34653e-08
2	1	0	1	1	278923	-0.219512	-0.220327	0.000123156	2	1.88566e-05	43	4.1492	-2.71346e-08
2	1	0	1	1	278924	-0.216013	-0.216826	0.000133357	2	1.89014e-05	43	4.4992	-2.89154e-08
2	1	0	1	1	278924	-0.212514	-0.213319	0.000142337	2	1.89495e-05	43	4.849	-3.03633e-08
2	1	0	1	1	278924	-0.209014	-0.209842	0.000151142	2	1.90007e-05	43	5.199	-3.17159e-08
2	1	0	1	1	278925	-0.205515	-0.206339	0.000159822	2	1.90552e-05	43	5.549	-3.29776e-08
2	1	0	1	1	278925	-0.202016	-0.202859	0.000168331	2	1.91125e-05	43	5.8988	-3.41473e-08
2	1	0	1	1	278925	-0.198516	-0.199352	0.000179046	2	1.91734e-05	43	6.2488	-3.56933e-08
2	1	0	1	1	278926	-0.195017	-0.195859	0.000188844	2	1.92375e-05	43	6.5988	-3.69867e-08
2	1	0	1	1	278926	-0.191517	-0.192361	0.000197201	2	1.93049e-05	43	6.94879	-3.79339e-08
2	1	0	1	1	278926	-0.188018	-0.188858	0.00021031	2	1.93761e-05	43	7.29859	-3.97188e-08
2	1	0	1	1	278927	-0.184519	-0.18533	0.000215922	2	1.94504e-05	43	7.64859	-4.00169e-08
2	1	0	1	1	278927	-0.181019	-0.181854	0.000224768	2	1.95279e-05	43	7.99859	-4.0875e-08
2	1	0	1	1	278927	-0.17752	-0.178373	0.000235305	2	1.96086e-05	43	8.34839	-4.1972e-08
2	1	0	1	1	278928	-0.174021	-0.174861	0.000244794	2	1.96929e-05	43	8.69839	-4.28047e-08
2	1	0	1	1	278928	-0.170521	-0.171358	0.000253419	2	1.97804e-05	43	9.04839	-4.34254e-08
2	1	0	1	1	278929	-0.167022	-0.16785	0.000263668	2	1.98712e-05	43	9.39819	-4.42567e-08
2	1	0	1	1	278929	-0.163522	-0.164382	0.000272145	2	1.99655e-05	43	9.74819	-4.47356e-08
2	1	0	1	1	278929	-0.160023	-0.160878	0.000282411	2	2.00625e-05	43	10.0982	-4.54338e-08
2	1	0	1	1	278930	-0.156524	-0.157386	0.000294278	2	2.01637e-05	43	10.448	-4.63154e-08
2	1	0	1	1	278930	-0.153024	-0.153902	0.000303343	2	2.02681e-05	43	10.798	-4.66851e-08
2	1	0	1	1	278930	-0.149525	-0.150378	0.000312699	2	2.03759e-05	43	11.148	-4.70231e-08
2	1	0	1	1	278931	-0.146025	-0.146892	0.000323794	2	2.04871e-05	43	11.4979	-4.75628e-08
2	1	0	1	1	278931	-0.142526	-0.143393	0.000338219	2	2.06033e-05	43	11.8478	-4.84983e-08
2	1	0	1	1	278931	-0.139027	-0.139903	0.000345441	2	2.07227e-05	43	12.1978	-4.83282e-08
2	1	0	1	1	278932	-0.135527	-0.136402	0.000357312	2	2.08456e-05	43	12.5478	-4.87382e-08
2	1	0	1	1	278932	-0.132028	-0.132903	0.000367957	2	2.09724e-05	43	12.8976	-4.89027e-08
2	1	0	1	1	278932	-0.128529	-0.129398	0.000374972	2	2.11024e-05	43	13.2476	-4.85206e-08
2	1	0	1	1	278933	-0.125029	-0.125889	0.00038678	2	2.12358e-05	43	13.5976	-4.86914e-08
2	1	0	1	1	278933	-0.12153	-0.122429	0.000397047	2	2.13729e-05	43	13.9474	-4.86102e-08
2	1	0	1	1	278933	-0.11803	-0.118918	0.000409767	2	2.15138e-05	43	14.2974	-4.87285e-08
2	1	0	1	1	278934	-0.114531	-0.11542	0.000421081	2	2.16597e-05	43	14.6474	-4.86012e-08
2	1	0	1	1	278934	-0.111032	-0.111923	0.000426904	2	2.18078e-05	43	14.9972	-4.77805e-08
2	1	0	1	1	278934	-0.107532	-0.108435	0.000441083	2	2.19601e-05	43	15.3472	-4.78287e-08
2	1	0	1	1	278935	-0.104033	-0.104911	0.000456597	2	2.2118e-05	43	15.6972	-4.79021e-08
2	1	0	1	1	278935	-0.100534	-0.101407	0.000467007	2	2.22793e-05	43	16.047	-4.73577e-08
2	1	0	1	1	278936	-0.0970342	-0.0979123	0.000474885	2	2.2444e-05	43	16.397	-4.6497e-08
2	1	0	1	1	278936	-0.0935348	-0.0944243	0.000484647	2	2.26112e-05	43	16.747	-4.57624e-08
2	1	0	1	1	278936	-0.090035	-0.0909183	0.00049327	2	2.27829e-05	43	17.0969	-4.48473e-08
2	1	0	1	1	278937	-0.0865361	-0.0874238	0.000510059	2	2.29595e-05	43	17.4468	-4.45913e-08
2	1	0	1	1	278937	-0.0830367	-0.0839526	0.000521923	2	2.31397e-05	43	17.7968	-4.38168e-08
2	1	0	1	1	278937	-0.0795373	-0.0804464	0.000532273	2	2.33247e-05	43	18.1468	-4.28194e-08
2	1	0	1	1	278938	-0.076038	-0.0769247	0.000545852	2	2.35129e-05	43	18.4966	-4.19895e-08
2	1	0	1	1	278938	-0.0725386	-0.0734353	0.000552579	2	2.3706e-05	43	18.8466	-4.05788e-08
2	1	0	1	1	278938	-0.0690392	-0.0699297	0.000573797	2	2.39024e-05	43	19.1966	-4.01255e-08
2	1	0	1	1	278939	-0.0655398	-0.066445	0.000576076	2	2.41039e-05	43	19.5464	-3.82773e-08
2	1	0	1	1	278939	-0.0620404	-0.0629392	0.000593014	2	2.43089e-05	43	19.8964	-3.73238e-08
2	1	0	1	1	278939	-0.0585411	-0.0594455	0.000603345	2	2.45187e-05	43	20.2464	-3.58662e-08
2	1	0	1	1	278940	-0.0550417	-0.0559544	0.000615766	2	2.47319e-05	43	20.5962	-3.44548e-08
2	1	0	1	1	278940	-0.0515423	-0.0524516	0.000630093	2	2.49496e-05	43	20.9462	-3.30494e-08
2	1	0	1	1	278940	-0.0480429	-0.0489399	0.000644726	2	2.5173e-05	43	21.2962	-3.15528e-08
2	1	0	1	1	278941	-0.0445436	-0.0454808	0.000651799	2	2.53998e-05	43	21.646	-2.96443e-08
2	1	0	1	1	278941	-0.0410442	-0.0419678	0.00066928	2	2.56307e-05	43	21.996	-2.80882e-08
2	1	0	1	1	278941	-0.0375448	-0.0384591	0.000674082	2	2.58654e-05	43	22.346	-2.59245e-08
2	1	0	1	1	278942	-0.0340457	-0.0349728	0.000690517	2	2.61048e-05	43	22.6959	-2.41493e-08
2	1	0	1	1	278942	-0.0305461	-0.0314861	0.000706268	2	2.63493e-05	43	23.0458	-2.22377e-08
2	1	0	1	1	278943	-0.0270467	-0.02797	0.000720413	2	2.65988e-05	43	23.3958	-2.01499e-08
2	1	0	1	1	278943	-0.0235473	-0.024468	0.000738537	2	2.68534e-05	43	23.7458	-1.80705e-08
2	1	0	1	1	278943	-0.0200479	-0.0209724	0.000753405	2	2.71157e-05	43	24.0956	-1.58007e-08
2	1	0	1	1	278944	-0.0165485	-0.0174866	0.000763577	2	2.73814e-05	43	24.4456	-1.33524e-08
2	1	0	1	1	278944	-0.0130492	-0.0139861	0.00077795	2	2.7651e-05	43	24.7956	-1.08805e-08
2	1	0	1	1	278944	-0.00954979	-0.0104778	0.00079033	2	2.79255e-05	43	25.1454	-8.28093e-09
2	1	0	1	1	278945	-0.00605042	-0.00701087	0.000806829	2	2.8205e-05	43	25.4954	-5.65657e-09
2	1	0	1	1	278945	-0.00255104	-0.00350425	0.000813828	2	2.84877e-05	43	25.8454	-2.85186e-09
2	1	0	1	0	278945	-0.00025145	-0.000673221	0.000819873	2	2.87174e-05	43	26.1257	-5.51956e-10
2	1	0	1	0	278946	-0.00375083	-0.00292936	0.000772975	2	2.89978e-05	43	26.4756	-2.26432e-09
2	1	0	1	0	278946	-0.00725021	-0.00644404	0.000748152	2	2.92648e-05	43	26.8256	-4.82112e-09
2	1	0	1	0	278946	-0.0107496	-0.0099252	0.000718735	2	2.95222e-05	43	27.1756	-7.13359e-09
2	1	0	1	0	278947	-0.014249	-0.0134325	0.000696528	2	2.97692e-05	43	27.5254	-9.35609e-09
2	1	0	1	0	278947	-0.0177483	-0.0169087	0.000681359	2	3.00106e-05	43	27.8754	-1.15209e-08
2	1	0	1	0	278947	-0.0212477	-0.0204137	0.00066608	2	3.02462e-05	43	28.2254	-1.35971e-08
2	1	0	1	0	278948	-0.0247471	-0.0239027	0.000652959	2	3.04779e-05	43	28.5752	-1.56075e-08
2	1	0	1	0	278948	-0.0282465	-0.027407	0.000629227	2	3.0702e-05	43	28.9252	-1.72452e-08
2	1	0	1	0	278948	-0.0317458	-0.0308731	0.000607347	2	3.09186e-05	43	29.2752	-1.87507e-08
2	1	0	1	0	278949	-0.0352452	-0.0343816	0.000603333	2	3.11308e-05	43	29.625	-2.07436e-08
2	1	0	1	0	278949	-0.0387446	-0.0378759	0.00057835	2	3.13379e-05	43	29.975	-2.19055e-08
2	1	0	1	0	278949	-0.042244	-0.0413982	0.000564638	2	3.15376e-05	43	30.325	-2.3375e-08
2	1	0	1	0	278950	-0.0457434	-0.044866	0.000547738	2	3.17323e-05	43	30.6748	-2.45748e-08
2	1	0	1	0	278950	-0.0492427	-0.0483701	0.000535179	2	3.19215e-05	43	31.0248	-2.58867e-08
2	1	0	1	0	278951	-0.0527421	-0.0518659	0.000520999	2	3.21066e-05	43	31.3748	-2.70221e-08
2	1	0	1	0	278951	-0.0562408	-0.0553615	0.000505245	2	3.22864e-05	43	31.7247	-2.79711e-08
2	1	0	1	0	278951	-0.0597409	-0.0588537	0.000490076	2	3.24602e-05	43	32.0746	-2.88427e-08
2	1	0	1	0	278952	-0.0632402	-0.0623601	0.000471391	2	3.26289e-05	43	32.4246	-2.9396e-08
2	1	0	1	0	278952	-0.0667396	-0.0658624	0.000458994	2	3.27918e-05	43	32.7746	-3.02305e-08
2	1	0	1	0	278952	-0.070239	-0.0693487	0.000445405	2	3.29503e-05	43	33.1244	-3.08883e-08
2	1	0	1	0	278953	-0.0737384	-0.0728593	0.000436975	2	3.31055e-05	43	33.4744	-3.18377e-08
2	1	0	1	0	278953	-0.0772377	-0.0763594	0.000423998	2	3.32558e-05	43	33.8244	-3.23762e-08
2	1	0	1	0	278953	-0.0807371	-0.0798637	0.000409231	2	3.34016e-05	43	34.1742	-3.26827e-08
2	1	0	1	0	278954	-0.0842365	-0.0833663	0.000395819	2	3.35419e-05	43	34.5242	-3.2998e-08
2	1	0	1	0	278954	-0.0877359	-0.0868398	0.000384606	2	3.36782e-05	43	34.8742	-3.33991e-08
2	1	0	1	0	278954	-0.0912353	-0.0903803	0.000373525	2	3.38108e-05	43	35.224	-3.37593e-08
2	1	0	1	0	278955	-0.0947346	-0.0938449	0.000363238	2	3.39393e-05	43	35.574	-3.4088e-08
2	1	0	1	0	278955	-0.098234	-0.0973302	0.000354111	2	3.40648e-05	43	35.924	-3.44657e-08
2	1	0	1	0	278955	-0.101733	-0.100837	0.000339248	2	3.41865e-05	43	36.2738	-3.42087e-08
2	1	0	1	0	278956	-0.105233	-0.104354	0.000327922	2	3.43035e-05	43	36.6238	-3.42201e-08
2	1	0	1	0	278956	-0.108732	-0.107877	0.000316784	2	3.44164e-05	43	36.9738	-3.41737e-08
2	1	0	1	0	278956	-0.112232	-0.111357	0.000308438	2	3.4526e-05	43	37.3238	-3.43467e-08
2	1	0	1	0	278957	-0.115731	-0.114852	0.000292879	2	3.46314e-05	43	37.6736	-3.36378e-08
2	1	0	1	0	278957	-0.11923	-0.118352	0.000285654	2	3.47326e-05	43	38.0236	-3.38078e-08
2	1	0	1	0	278958	-0.12273	-0.121839	0.000275091	2	3.48312e-05	43	38.3736	-3.35168e-08
2	1	0	1	0	278958	-0.126229	-0.125336	0.000264356	2	3.49255e-05	43	38.7234	-3.31334e-08
2	1	0	1	0	278958	-0.129728	-0.128836	0.000254708	2	3.50163e-05	43	39.0734	-3.28155e-08
2	1	0	1	0	278959	-0.133228	-0.132326	0.000247318	2	3.5104e-05	43	39.4234	-3.27265e-08
2	1	0	1	0	278959	-0.136727	-0.135837	0.000235702	2	3.51886e-05	43	39.7732	-3.2017e-08
2	1	0	1	0	278959	-0.140227	-0.139316	0.000226127	2	3.52696e-05	43	40.1232	-3.15032e-08
2	1	0	1	0	278960	-0.143726	-0.142818	0.000216788	2	3.53472e-05	43	40.4732	-3.09612e-08
2	1	0	1	0	278960	-0.147225	-0.146324	0.000207077	2	3.54213e-05	43	40.823	-3.03002e-08
2	1	0	1	0	278960	-0.150725	-0.149819	0.000196884	2	3.54921e-05	43	41.173	-2.94971e-08
2	1	0	1	0	278961	-0.154224	-0.153319	0.000190385	2	3.55598e-05	43	41.523	-2.91898e-08
2	1	0	1	0	278961	-0.157723	-0.156821	0.00017976	2	3.56242e-05	43	41.8728	-2.81901e-08
2	1	0	1	0	278961	-0.161223	-0.160312	0.000170865	2	3.56854e-05	43	42.2228	-2.73917e-08
2	1	0	1	0	278962	-0.164722	-0.163815	0.000162394	2	3.57437e-05	43	42.5728	-2.66026e-08
2	1	0	1	0	278962	-0.168222	-0.167298	0.00015392	2	3.57989e-05	43	42.9228	-2.57504e-08
2	1	0	1	0	278962	-0.171721	-0.17081	0.000146031	2	3.58514e-05	43	43.2726	-2.49435e-08
2	1	0	1	0	278963	-0.17522	-0.174319	0.000135536	2	3.59004e-05	43	43.6226	-2.36264e-08
2	1	0	1	0	278963	-0.17872	-0.177794	0.000127073	2	3.59464e-05	43	43.9726	-2.25929e-08
2	1	0	1	0	278963	-0.182219	-0.181324	0.00011997	2	3.59896e-05	43	44.3224	-2.17534e-08
2	1	0	1	0	278964	-0.185718	-0.184813	0.000111074	2	3.60299e-05	43	44.6724	-2.05279e-08
2	1	0	1	0	278964	-0.189218	-0.188316	0.000103612	2	3.60675e-05	43	45.0224	-1.95119e-08
2	1	0	1	0	278965	-0.192717	-0.191796	9.4471e-05	2	3.61021e-05	43	45.3722	-1.81191e-08
2	1	0	1	0	278965	-0.196217	-0.195305	8.66346e-05	2	3.61337e-05	43	45.7222	-1.69202e-08
2	1	0	1	0	278965	-0.199716	-0.1988	7.81827e-05	2	3.61624e-05	43	46.0722	-1.55427e-08
2	1	0	1	0	278966	-0.203215	-0.202284	7.08312e-05	2	3.61884e-05	43	46.422	-1.4328e-08
2	1	0	1	0	278966	-0.206715	-0.205788	6.2219e-05	2	3.62116e-05	43	46.772	-1.28039e-08
2	1	0	1	0	278966	-0.210214	-0.209277	5.4788e-05	2	3.62321e-05	43	47.122	-1.14659e-08
2	1	0	1	0	278967	-0.213714	-0.212773	4.6445e-05	2	3.62498e-05	43	47.4719	-9.88226e-09
2	1	0	1	0	278967	-0.221212	-0.220298	2.93793e-05	2	3.62801e-05	44	48.2218	-6.47221e-09
2	1	0	1	0	278968	-0.224711	-0.223789	2.19709e-05	2	3.62891e-05	44	48.5717	-4.91684e-09
2	1	0	1	0	278968	-0.228211	-0.227273	1.34619e-05	2	3.62952e-05	44	48.9216	-3.05953e-09
2	1	0	1	0	278968	-0.23171	-0.230793	5.10773e-06	2	3.62985e-05	44	49.2716	-1.17883e-09
2	0	0	1	0	278969	-0.241209	-0.240286	-1.59633e-05	2	3.62957e-05	45	0.35	3.83576e-09
2	0	0	1	0	278970	-0.246708	-0.245777	-2.85382e-05	2	3.6285e-05	44	0.899999	7.01403e-09
2	0	0	1	0	278970	-0.250207	-0.249292	-3.72196e-05	2	3.62734e-05	44	1.2498	9.27854e-09
2	0	0	1	0	278971	-0.253706	-0.252776	-4.48666e-05	2	3.62591e-05	44	1.5998	1.13412e-08
2	0	0	1	0	278971	-0.257206	-0.256265	-5.21301e-05	2	3.62421e-05	44	1.9498	1.33591e-08
2	0	0	1	0	278971	-0.260105	-0.25917	-5.91885e-05	3	3.62259e-05	44	2.2396	1.53399e-08
2	0	0	1	0	278972	-0.263605	-0.262694	-6.85048e-05	3	3.62035e-05	44	2.5896	1.79958e-08
2	0	0	1	0	278972	-0.267104	-0.26618	-7.68944e-05	3	3.61781e-05	44	2.9396	2.04678e-08
2	0	0	1	0	278972	-0.270603	-0.269688	-8.4404e-05	3	3.61498e-05	44	3.2894	2.27628e-08
2	0	0	1	0	278973	-0.274103	-0.273212	-9.26908e-05	3	3.61188e-05	44	3.6394	2.53242e-08
2	0	0	1	0	278973	-0.277602	-0.276664	-0.000100203	3	3.60849e-05	44	3.9894	2.77227e-08
2	0	0	1	0	278974	-0.285101	-0.28414	-0.000119091	3	3.60037e-05	43	4.7392	3.38386e-08
2	0	0	1	0	278974	-0.2886	-0.287661	-0.000127705	3	3.59602e-05	43	5.0892	3.67358e-08
2	0	0	1	0	278974	-0.292099	-0.291155	-0.00013873	3	3.59138e-05	43	5.4391	4.0392e-08
2	0	0	1	0	278975	-0.295599	-0.294657	-0.000145613	3	3.58644e-05	43	5.789	4.2906e-08
2	0	0	1	0	278975	-0.299098	-0.298159	-0.000156513	3	3.58112e-05	43	6.139	4.66657e-08
2	0	0	1	0	278975	-0.302598	-0.301646	-0.000165654	3	3.57549e-05	43	6.489	4.9969e-08
2	0	0	1	0	278976	-0.306097	-0.305188	-0.000174835	3	3.56951e-05	43	6.83879	5.33574e-08
2	0	0	1	0	278976	-0.308497	-0.308112	-0.000181955	3	3.5642e-05	43	7.13439	5.60626e-08
2	0	0	1	0	278976	-0.304997	-0.305759	-0.000136001	3	3.55867e-05	43	7.48439	4.15837e-08
2	0	0	1	0	278977	-0.301498	-0.302272	-0.000115006	3	3.55431e-05	43	7.83419	3.4763e-08
2	0	0	1	0	278977	-0.297998	-0.298772	-0.000102217	3	3.55052e-05	43	8.18419	3.05396e-08
2	0	0	1	0	278978	-0.294499	-0.295264	-9.10127e-05	3	3.54715e-05	43	8.53419	2.68728e-08
2	0	0	1	0	278978	-0.291	-0.291782	-8.05165e-05	3	3.54416e-05	43	8.88399	2.34933e-08
2	0	0	1	0	278978	-0.2875	-0.28828	-7.18372e-05	3	3.54149e-05	43	9.23399	2.07092e-08
2	0	0	1	0	278979	-0.284001	-0.284789	-6.09327e-05	3	3.53918e-05	43	9.58399	1.7353e-08
2	0	0	1	0	278979	-0.280502	-0.281296	-5.09684e-05	3	3.53724e-05	43	9.93379	1.43372e-08
2	0	0	1	0	278980	-0.273003	-0.273803	-3.04037e-05	3	3.53397e-05	44	10.6838	8.32463e-09
2	0	0	1	0	278980	-0.269504	-0.270333	-2.13273e-05	3	3.53308e-05	44	11.0336	5.76549e-09
2	0	0	1	0	278980	-0.266004	-0.266813	-1.16633e-05	3	3.53251e-05	44	11.3836	3.11193e-09
2	0	0	1	0	278981	-0.260506	-0.261322	2.33223e-06	3	3.53222e-05	44	11.9335	-6.09464e-10
2	1	0	1	0	278982	-0.251007	-0.251801	2.73341e-05	3	3.53327e-05	44	0.45	-6.88275e-09
2	1	0	1	0	278982	-0.247507	-0.248298	3.63885e-05	3	3.53439e-05	44	0.799999	-9.03522e-09
2	1	0	1	0	278983	-0.244008	-0.244801	4.46259e-05	3	3.5358e-05	44	1.1498	-1.09245e-08
2	1	0	1	0	278983	-0.240509	-0.241333	5.44043e-05	3	3.53755e-05	44	1.4998	-1.31296e-08
2	1	0	1	0	278983	-0.237009	-0.237824	6.36587e-05	3	3.53961e-05	44	1.8498	-1.51396e-08
2	1	0	1	0	278984	-0.23351	-0.234316	7.21264e-05	3	3.54199e-05	44	2.1996	-1.69004e-08
2	1	0	1	0	278984	-0.230011	-0.230844	8.08393e-05	3	3.54466e-05	44	2.5496	-1.86613e-08
2	1	0	1	0	278984	-0.226511	-0.227305	8.99422e-05	3	3.54764e-05	44	2.8996	-2.04444e-08
2	1	0	1	0	278985	-0.223012	-0.223827	9.75898e-05	3	3.55091e-05	44	3.2494	-2.18432e-08
2	1	0	1	0	278985	-0.219512	-0.220326	0.000107202	3	3.5545e-05	44	3.5994	-2.36194e-08
2	1	0	1	0	278986	-0.212014	-0.212831	0.000126836	3	3.56305e-05	43	4.3492	-2.69946e-08
2	1	0	1	0	278986	-0.208514	-0.209312	0.000134943	3	3.56763e-05	43	4.6992	-2.82451e-08
2	1	0	1	0	278986	-0.205015	-0.205855	0.000144136	3	3.57249e-05	43	5.0492	-2.96711e-08
2	1	0	1	0	278987	-0.201516	-0.202345	0.000152349	3	3.57767e-05	43	5.399	-3.08271e-08
2	1	0	1	0	278987	-0.198016	-0.198856	0.000161704	3	3.58317e-05	43	5.749	-3.21558e-08
2	1	0	1	0	278988	-0.194517	-0.195342	0.000168683	3	3.58898e-05	43	6.099	-3.29507e-08
2	1	0	1	0	278988	-0.191017	-0.191855	0.000179465	3	3.59509e-05	43	6.4489	-3.44314e-08
2	1	0	1	0	278988	-0.187518	-0.18836	0.000187635	3	3.60149e-05	43	6.79879	-3.53429e-08
2	1	0	1	0	278989	-0.184019	-0.184862	0.00019621	3	3.60823e-05	43	7.14879	-3.62718e-08
2	1	0	1	0	278989	-0.180519	-0.181341	0.000207369	3	3.61532e-05	43	7.49879	-3.76044e-08
2	1	0	1	0	278989	-0.17702	-0.177855	0.000214333	3	3.6227e-05	43	7.84859	-3.81203e-08
2	1	0	1	0	278990	-0.173521	-0.174363	0.000222382	3	3.63037e-05	43	8.19859	-3.87751e-08
2	1	0	1	0	278990	-0.170021	-0.170863	0.000230007	3	3.63834e-05	43	8.54859	-3.92996e-08
2	1	0	1	0	278990	-0.166522	-0.167381	0.000242233	3	3.64662e-05	43	8.89839	-4.05451e-08
2	1	0	1	0	278991	-0.163022	-0.163877	0.000254059	3	3.65534e-05	43	9.24839	-4.16343e-08
2	1	0	1	0	278991	-0.159523	-0.160369	0.000260996	3	3.66435e-05	43	9.59839	-4.18555e-08
2	1	0	1	0	278991	-0.156024	-0.156878	0.000270554	3	3.67365e-05	43	9.94819	-4.2444e-08
2	1	0	1	0	278992	-0.152524	-0.153393	0.000279648	3	3.6833e-05	43	10.2982	-4.28958e-08
2	1	0	1	0	278992	-0.149025	-0.149876	0.00028748	3	3.6933e-05	43	10.6482	-4.30864e-08
2	1	0	1	0	278992	-0.145526	-0.146391	0.000300502	3	3.70356e-05	43	10.998	-4.39908e-08
2	1	0	1	0	278993	-0.142026	-0.142905	0.000307863	3	3.71424e-05	43	11.348	-4.39951e-08
2	1	0	1	0	278993	-0.138527	-0.139376	0.000316675	3	3.72516e-05	43	11.698	-4.4137e-08
2	1	0	1	0	278993	-0.135028	-0.135868	0.000326043	3	3.73637e-05	43	12.0479	-4.42988e-08
2	1	0	1	0	278994	-0.131528	-0.132364	0.000333894	3	3.74794e-05	43	12.3978	-4.41954e-08
2	1	0	1	0	278994	-0.128029	-0.128909	0.000344135	3	3.7598e-05	43	12.7478	-4.4362e-08
2	1	0	1	0	278995	-0.124529	-0.125395	0.000354644	3	3.77205e-05	43	13.0978	-4.44705e-08
2	1	0	1	0	278995	-0.12103	-0.121902	0.000365404	3	3.78463e-05	43	13.4476	-4.45435e-08
2	1	0	1	0	278995	-0.117531	-0.118417	0.00038024	3	3.79761e-05	43	13.7976	-4.50269e-08
2	1	0	1	0	278996	-0.114031	-0.114902	0.000385291	3	3.81098e-05	43	14.1476	-4.42705e-08
2	1	0	1	0	278996	-0.110532	-0.11142	0.00039802	3	3.82469e-05	43	14.4974	-4.43473e-08
2	1	0	1	0	278996	-0.107032	-0.107919	0.000405105	3	3.83868e-05	43	14.8474	-4.37187e-08
2	1	0	1	0	278997	-0.103533	-0.104413	0.000417582	3	3.85306e-05	43	15.1974	-4.36012e-08
2	1	0	1	0	278997	-0.100034	-0.100928	0.000425043	3	3.86782e-05	43	15.5472	-4.28989e-08
2	1	0	1	0	278997	-0.0965343	-0.0974057	0.000435656	3	3.88292e-05	43	15.8972	-4.24354e-08
2	1	0	1	0	278998	-0.0930349	-0.0939553	0.000443335	3	3.89835e-05	43	16.2472	-4.16536e-08
2	1	0	1	0	278998	-0.0895356	-0.0904224	0.000455587	3	3.91406e-05	43	16.597	-4.11952e-08
2	1	0	1	0	278998	-0.0860362	-0.0869335	0.000470976	3	3.93025e-05	43	16.947	-4.09436e-08
2	1	0	1	0	278999	-0.0825368	-0.0834303	0.000480334	3	3.94694e-05	43	17.297	-4.00744e-08
2	1	0	1	0	278999	-0.0790381	-0.0799536	0.00048894	3	3.96383e-05	43	17.6469	-3.90925e-08
2	1	0	1	0	278999	-0.075538	-0.076441	0.000503192	3	3.98124e-05	43	17.9968	-3.84645e-08
2	1	0	1	0	279000	-0.0720387	-0.0729461	0.000510245	3	3.99897e-05	43	18.3468	-3.72204e-08
2	1	0	1	0	279000	-0.0685393	-0.0694469	0.000522859	3	4.01705e-05	43	18.6968	-3.6311e-08
2	1	0	1	0	279000	-0.0650399	-0.0659282	0.00053424	3	4.03554e-05	43	19.0466	-3.52215e-08
2	1	0	1	0	279001	-0.0615405	-0.0624307	0.000538876	3	4.05431e-05	43	19.3966	-3.36424e-08
2	1	0	1	0	279001	-0.0580412	-0.0589652	0.000556522	3	4.07354e-05	43	19.7466	-3.28155e-08
2	1	0	1	0	279002	-0.0545418	-0.0554563	0.000569509	3	4.09318e-05	43	20.0964	-3.15828e-08
2	1	0	1	0	279002	-0.0510424	-0.051938	0.000581006	3	4.11328e-05	43	20.4464	-3.01763e-08
2	1	0	1	0	279002	-0.047543	-0.0484585	0.00058591	3	4.13364e-05	43	20.7964	-2.83924e-08
2	1	0	1	0	279003	-0.0440437	-0.0449568	0.000604299	3	4.15443e-05	43	21.1462	-2.71674e-08
2	1	0	1	0	279003	-0.0405443	-0.0414612	0.000612638	3	4.17569e-05	43	21.4962	-2.54007e-08
2	1	0	1	0	279003	-0.0370449	-0.0379616	0.00062599	3	4.19729e-05	43	21.8462	-2.37636e-08
2	1	0	1	0	279004	-0.0335455	-0.0344823	0.000634903	3	4.21933e-05	43	22.196	-2.18929e-08
2	1	0	1	0	279004	-0.0300461	-0.0309588	0.000655634	3	4.2419e-05	43	22.546	-2.02976e-08
2	1	0	1	0	279004	-0.0265468	-0.0274604	0.000657483	3	4.26484e-05	43	22.896	-1.80548e-08
2	1	0	1	0	279005	-0.0230474	-0.0239502	0.000667888	3	4.28824e-05	43	23.246	-1.59961e-08
2	1	0	1	0	279005	-0.019548	-0.0204697	0.000682538	3	4.31189e-05	43	23.5958	-1.39713e-08
2	1	0	1	0	279005	-0.0160486	-0.0169756	0.000697162	3	4.33602e-05	43	23.9458	-1.18347e-08
2	1	0	1	0	279006	-0.0125493	-0.0134728	0.000712658	3	4.36074e-05	43	24.2958	-9.60148e-09
2	1	0	1	0	279006	-0.00904988	-0.00997484	0.000725426	3	4.38595e-05	43	24.6456	-7.23601e-09
2	1	0	1	0	279006	-0.00555051	-0.00649962	0.000738428	3	4.41149e-05	43	24.9956	-4.7995e-09
2	1	0	1	0	279007	-0.00205113	-0.00298112	0.000748548	3	4.43756e-05	43	25.3456	-2.23151e-09
2	1	0	1	1	279007	-0.000751361	-0.000382875	0.000756765	3	4.45867e-05	43	25.6258	-2.89746e-10
2	1	0	1	1	279007	-0.00425074	-0.0034317	0.000702025	3	4.48403e-05	43	25.9758	-2.40914e-09
2	1	0	1	1	279008	-0.00775011	-0.0069222	0.000674314	3	4.50803e-05	43	26.3258	-4.66774e-09
2	1	0	1	1	279008	-0.0112495	-0.0104157	0.000652656	3	4.53118e-05	43	26.6758	-6.79785e-09
2	1	0	1	1	279008	-0.0147489	-0.0139185	0.000632773	3	4.55373e-05	43	27.0256	-8.80723e-09
2	1	0	1	1	279009	-0.0182482	-0.0174157	0.000612066	3	4.57549e-05	43	27.3756	-1.06596e-08
2	1	0	1	1	279009	-0.0217476	-0.0208935	0.00060161	3	4.59672e-05	43	27.7256	-1.25697e-08
2	1	0	1	1	279010	-0.025247	-0.0244027	0.000582275	3	4.61755e-05	43	28.0754	-1.42091e-08
2	1	0	1	1	279010	-0.0287464	-0.0278887	0.000567608	3	4.63757e-05	43	28.4254	-1.58298e-08
2	1	0	1	1	279010	-0.0322458	-0.0313875	0.00054901	3	4.65708e-05	43	28.7754	-1.72321e-08
2	1	0	1	1	279011	-0.0357451	-0.0348782	0.000537178	3	4.67611e-05	43	29.1252	-1.87358e-08
2	1	0	1	1	279011	-0.0392445	-0.0383912	0.000521444	3	4.6946e-05	43	29.4752	-2.00188e-08
2	1	0	1	1	279011	-0.0427439	-0.0418704	0.000505178	3	4.71252e-05	43	29.8252	-2.1152e-08
2	1	0	1	1	279012	-0.0462433	-0.0453734	0.000496548	3	4.73012e-05	43	30.175	-2.25301e-08
2	1	0	1	1	279012	-0.0497426	-0.0488586	0.00048026	3	4.74714e-05	43	30.525	-2.34649e-08
2	1	0	1	1	279012	-0.053242	-0.0523621	0.000466593	3	4.76367e-05	43	30.875	-2.44318e-08
2	1	0	1	1	279013	-0.0567414	-0.05585	0.000449726	3	4.77965e-05	43	31.2248	-2.51172e-08
2	1	0	1	1	279013	-0.0602408	-0.0593552	0.000436789	3	4.7952e-05	43	31.5748	-2.59257e-08
2	1	0	1	1	279013	-0.0637401	-0.0628707	0.000424894	3	4.81027e-05	43	31.9248	-2.67134e-08
2	1	0	1	1	279014	-0.0672395	-0.0663794	0.000416887	3	4.82501e-05	43	32.2748	-2.76727e-08
2	1	0	1	1	279014	-0.0707389	-0.0698758	0.000400238	3	4.83925e-05	43	32.6246	-2.7967e-08
2	1	0	1	1	279014	-0.0742383	-0.0733638	0.000385503	3	4.85303e-05	43	32.9746	-2.8282e-08
2	1	0	1	1	279015	-0.0777377	-0.0768698	0.000375494	3	4.86636e-05	43	33.3246	-2.88642e-08
2	1	0	1	1	279015	-0.081237	-0.0803433	0.000365907	3	4.87937e-05	43	33.6744	-2.93982e-08
2	1	0	1	1	279015	-0.0847364	-0.0838514	0.000350707	3	4.89189e-05	43	34.0244	-2.94073e-08
2	1	0	1	1	279016	-0.0882358	-0.0873551	0.000343516	3	4.90407e-05	43	34.3744	-3.00078e-08
2	1	0	1	1	279016	-0.0917352	-0.0908502	0.000332089	3	4.91582e-05	43	34.7242	-3.01704e-08
2	1	0	1	1	279017	-0.0952345	-0.0943475	0.000321329	3	4.92719e-05	43	35.0742	-3.03165e-08
2	1	0	1	1	279017	-0.0987339	-0.0978571	0.000310686	3	4.93829e-05	43	35.4242	-3.04028e-08
2	1	0	1	1	279017	-0.102233	-0.101358	0.000298252	3	4.94894e-05	43	35.774	-3.02303e-08
2	1	0	1	1	279018	-0.105733	-0.104855	0.000290127	3	4.95923e-05	43	36.124	-3.04214e-08
2	1	0	1	1	279018	-0.109232	-0.108344	0.000280046	3	4.96917e-05	43	36.474	-3.03414e-08
2	1	0	1	1	279018	-0.112732	-0.111837	0.000265899	3	4.97872e-05	43	36.8239	-2.97374e-08
2	1	0	1	1	279019	-0.116231	-0.115346	0.000257034	3	4.98789e-05	43	37.1738	-2.96478e-08
2	1	0	1	1	279019	-0.11973	-0.118854	0.000249241	3	4.9968e-05	43	37.5238	-2.96232e-08
2	1	0	1	1	279019	-0.12323	-0.12236	0.000241644	3	5.00542e-05	43	37.8738	-2.95675e-08
2	1	0	1	1	279020	-0.126729	-0.125844	0.00023143	3	5.01369e-05	43	38.2236	-2.9124e-08
2	1	0	1	1	279020	-0.130228	-0.129326	0.000220397	3	5.02163e-05	43	38.5736	-2.85031e-08
2	1	0	1	1	279020	-0.133728	-0.132841	0.000213408	3	5.02923e-05	43	38.9236	-2.83493e-08
2	1	0	1	1	279021	-0.137227	-0.136324	0.000203717	3	5.0365e-05	43	39.2734	-2.77714e-08
2	1	0	1	1	279021	-0.140726	-0.139835	0.000191252	3	5.04344e-05	43	39.6234	-2.67438e-08
2	1	0	1	1	279021	-0.144226	-0.143315	0.000184415	3	5.05003e-05	43	39.9734	-2.64295e-08
2	1	0	1	1	279022	-0.147725	-0.146829	0.000174992	3	5.05634e-05	43	40.3232	-2.56939e-08
2	1	0	1	1	279022	-0.151225	-0.150324	0.000167122	3	5.06232e-05	43	40.6732	-2.51225e-08
2	1	0	1	1	279022	-0.154724	-0.153809	0.000158187	3	5.06805e-05	43	41.0232	-2.43306e-08
2	1	0	1	1	279023	-0.158223	-0.157342	0.00015032	3	5.07344e-05	43	41.373	-2.36516e-08
2	1	0	1	1	279023	-0.161723	-0.160851	0.000144046	3	5.0786e-05	43	41.723	-2.31701e-08
2	1	0	1	1	279024	-0.165222	-0.164286	0.000136216	3	5.08351e-05	43	42.073	-2.23784e-08
2	1	0	1	1	279024	-0.168722	-0.16779	0.000128959	3	5.08813e-05	43	42.4229	-2.1638e-08
2	1	0	1	1	279024	-0.172221	-0.171301	0.000121279	3	5.09248e-05	43	42.7728	-2.07752e-08
2	1	0	1	1	279025	-0.17572	-0.174799	0.00011185	3	5.09655e-05	43	43.1228	-1.95513e-08
2	1	0	1	1	279025	-0.17922	-0.17829	0.0001032	3	5.10032e-05	43	43.4728	-1.83995e-08
2	1	0	1	1	279025	-0.182719	-0.181778	9.7027e-05	3	5.10384e-05	43	43.8226	-1.76374e-08
2	1	0	1	1	279026	-0.186218	-0.185301	8.77362e-05	3	5.10706e-05	43	44.1726	-1.62576e-08
2	1	0	1	1	279026	-0.189718	-0.188802	8.07823e-05	3	5.11003e-05	43	44.5226	-1.52518e-08
2	1	0	1	1	279026	-0.193217	-0.192303	7.2725e-05	3	5.11273e-05	43	44.8724	-1.39852e-08
2	1	0	1	1	279027	-0.196716	-0.195808	6.54931e-05	3	5.11515e-05	43	45.2224	-1.2824e-08
2	1	0	1	1	279027	-0.200216	-0.199297	5.89892e-05	3	5.11732e-05	43	45.5724	-1.17564e-08
2	1	0	1	1	279027	-0.203715	-0.2028	5.16429e-05	3	5.11924e-05	43	45.9222	-1.04732e-08
2	1	0	1	1	279028	-0.207215	-0.206289	4.37759e-05	3	5.12091e-05	43	46.2722	-9.0305e-09
2	1	0	1	1	279028	-0.214713	-0.213774	2.86464e-05	3	5.12376e-05	44	47.022	-6.12384e-09
2	1	0	1	1	279029	-0.218213	-0.217274	2.01953e-05	3	5.12461e-05	44	47.372	-4.38792e-09
2	1	0	1	1	279029	-0.221712	-0.220764	1.33092e-05	3	5.12519e-05	44	47.722	-2.9382e-09
2	1	0	1	1	279030	-0.225211	-0.22431	5.57035e-06	3	5.12552e-05	44	48.0718	-1.24949e-09
2	0	0	1	1	279030	-0.23271	-0.231793	-1.00316e-05	3	5.12552e-05	45	0.0999999	2.32525e-09
2	0	0	1	1	279031	-0.240209	-0.239274	-2.58606e-05	3	5.12434e-05	44	0.849799	6.18778e-09
2	0	0	1	1	279031	-0.243708	-0.242797	-3.33526e-05	3	5.12329e-05	44	1.1998	8.09792e-09
2	0	0	1	1	279032	-0.247207	-0.246275	-4.04001e-05	3	5.122e-05	44	1.5497	9.94954e-09
2	0	0	1	1	279032	-0.250707	-0.249772	-4.82364e-05	3	5.12044e-05	44	1.8996	1.20481e-08
2	0	0	1	1	279032	-0.254206	-0.253274	-5.63992e-05	3	5.11862e-05	44	2.2496	1.42844e-08
2	0	0	1	1	279033	-0.257706	-0.256783	-6.50326e-05	3	5.11651e-05	44	2.5996	1.66992e-08
2	0	0	0	1	279033	-0.25878	-0.257787	-6.70406e-05	3	5.11582e-05	44	2.7037	1.72822e-08