File: data_dir/600_B_immertest4/600_B_09_OCV_C03.mpt
EC-Lab ASCII FILE
Nb header lines : 48

Open Circuit Voltage

Run on channel : 3 (SN 13150)
User :
Electrode connection : standard
Potential control : Ewe
Ewe ctrl range : min = -1.00 V, max = 1.00 V
Ewe,I filtering : 5 Hz
Safety Limits :
	Do not start on E overload
Channel : Floating
Acquisition started on : 07/01/2024 16:51:05.709
Loaded Setting File :  C:\Users\mAtsuhitA\Desktop\Oyafuso\20240624_???????4\1540_A.mps
Saved on :
	File : 600_B_09_OCV_C03.mpr
	Directory : C:\Users\mAtsuhitA\Desktop\Oyafuso\20240624_???????4\600_B\
	Host : 192.109.209.100
Device : VSP-300 (SN 0834)
Address : 192.109.209.128
EC-Lab for windows v11.50 (software)
Internet server v11.50 (firmware)
Command interpretor v11.50 (firmware)
Electrode material :
Initial state :
Electrolyte :
Comments :
Cable : standard
Electrode surface area : 0.001 cm2
Characteristic mass : 0.001 g
Equivalent Weight : 0.000 g/eq.
Density : 0.000 g/cm3
Volume (V) : 0.001 cm3
Text export
   Mode : Standard
   Time format : Elapsed
Cycle Definition : Charge/Discharge alternance
tR (h:m:s)          5:00:0.0000
dER/dt (mV/h)       0.0
record              Ewe
dER (mV)            10.00
dtR (s)             30.0000
E range min (V)     -1.000
E range max (V)     1.000

mode	error	time/s	Ewe/V
3	0	260848	-0.00126246
3	0	260848	-0.0112954
3	0	260848	-0.0213456
3	0	260848	-0.0313785
3	0	260848	-0.0414258
3	0	260849	-0.0514607
3	0	260849	-0.0614803
3	0	260850	-0.0714961
3	0	260851	-0.0815043
3	0	260851	-0.0915201
3	0	260852	-0.101521
3	0	260853	-0.111525
3	0	260855	-0.121552
3	0	260856	-0.131564
3	0	260859	-0.141576
3	0	260861	-0.151584
3	0	260866	-0.1616
3	0	260873	-0.171608
3	0	260892	-0.181628
3	0	260922	-0.188864
3	0	260952	-0.193614
3	0	260982	-0.196532
3	0	261012	-0.199418
3	0	261042	-0.201801
3	0	261072	-0.203664
3	0	261102	-0.205524
3	0	261132	-0.20696
3	0	261162	-0.208445
3	0	261192	-0.20995
3	0	261222	-0.211202
3	0	261252	-0.212283
3	0	261282	-0.21339
3	0	261312	-0.214314
3	0	261342	-0.215143
3	0	261372	-0.215891
3	0	261402	-0.21685
3	0	261432	-0.217701
3	0	261462	-0.21856
3	0	261492	-0.219477
3	0	261522	-0.220103
3	0	261552	-0.220863
3	0	261582	-0.221626
3	0	261612	-0.222035
3	0	261642	-0.222673
3	0	261672	-0.223192
3	0	261702	-0.223833
3	0	261732	-0.224273
3	0	261762	-0.224612
3	0	261792	-0.225029
3	0	261822	-0.225972
3	0	261852	-0.226388
3	0	261882	-0.22682
3	0	261912	-0.227156
3	0	261942	-0.227515
3	0	261972	-0.22774
3	0	262002	-0.228045
3	0	262032	-0.228435
3	0	262062	-0.228797
3	0	262092	-0.228828
3	0	262122	-0.229183
3	0	262152	-0.229378
3	0	262182	-0.229775
3	0	262212	-0.230016
3	0	262242	-0.230103
3	0	262272	-0.23039
3	0	262302	-0.230657
3	0	262332	-0.230932
3	0	262362	-0.23105
3	0	262392	-0.231333
3	0	262422	-0.231558
3	0	262452	-0.231837
3	0	262482	-0.232173
3	0	262512	-0.232452
3	0	262542	-0.232501
3	0	262572	-0.232773
3	0	262602	-0.232983
3	0	262632	-0.23312
3	0	262662	-0.233277
3	0	262692	-0.233502
3	0	262722	-0.233731
3	0	262752	-0.233891
3	0	262782	-0.233983
3	0	262812	-0.234231
3	0	262842	-0.234544
3	0	262872	-0.234819
3	0	262902	-0.234789
3	0	262932	-0.235079
3	0	262962	-0.235316
3	0	262992	-0.235186
3	0	263022	-0.235487
3	0	263052	-0.235453
3	0	263082	-0.235426
3	0	263112	-0.235724
3	0	263142	-0.235808
3	0	263172	-0.235755
3	0	263202	-0.23572
3	0	263232	-0.235911
3	0	263262	-0.236056
3	0	263292	-0.236159
3	0	263322	-0.236243
3	0	263352	-0.236404
3	0	263382	-0.236641
3	0	263412	-0.23669
3	0	263442	-0.236759
3	0	263472	-0.236881
3	0	263502	-0.237042
3	0	263532	-0.237229
3	0	263562	-0.237103
3	0	263592	-0.237282
3	0	263622	-0.23729
3	0	263652	-0.237282
3	0	263682	-0.237412
3	0	263712	-0.237454
3	0	263742	-0.237565
3	0	263772	-0.237641
3	0	263802	-0.237874
3	0	263832	-0.238122
3	0	263862	-0.238206
3	0	263892	-0.238267
3	0	263922	-0.238237
3	0	263952	-0.238279
3	0	263982	-0.238237
3	0	264012	-0.238145
3	0	264042	-0.238493
3	0	264072	-0.238347
3	0	264102	-0.238447
3	0	264132	-0.238481
3	0	264162	-0.238596
3	0	264192	-0.238645
3	0	264222	-0.238714
3	0	264252	-0.238867
3	0	264282	-0.238913
3	0	264312	-0.239058
3	0	264342	-0.239172
3	0	264372	-0.239356
3	0	264402	-0.239459
3	0	264432	-0.239573
3	0	264462	-0.239596
3	0	264492	-0.239776
3	0	264522	-0.239829
3	0	264552	-0.239783
3	0	264582	-0.239871
3	0	264612	-0.239898
3	0	264642	-0.24015
3	0	264672	-0.240215
3	0	264702	-0.240283
3	0	264732	-0.240505
3	0	264762	-0.240868
3	0	264792	-0.240875
3	0	264822	-0.240894
3	0	264852	-0.240982
3	0	264882	-0.240948
3	0	264912	-0.240952
3	0	264942	-0.241001
3	0	264972	-0.241055
3	0	265002	-0.241097
3	0	265032	-0.241104
3	0	265062	-0.241165
3	0	265092	-0.241154
3	0	265122	-0.241242
3	0	265152	-0.24136
3	0	265182	-0.241459
3	0	265212	-0.241459
3	0	265242	-0.241536
3	0	265272	-0.2417
3	0	265302	-0.241761
3	0	265332	-0.241906
3	0	265362	-0.241941
3	0	265392	-0.242067
3	0	265422	-0.242063
3	0	265452	-0.242143
3	0	265482	-0.242193
3	0	265512	-0.242448
3	0	265542	-0.242468
3	0	265572	-0.242639
3	0	265602	-0.242834
3	0	265632	-0.242827
3	0	265662	-0.24314
3	0	265692	-0.243185
3	0	265722	-0.24346
3	0	265752	-0.242991
3	0	265782	-0.243021
3	0	265812	-0.243014
3	0	265842	-0.242956
3	0	265872	-0.243033
3	0	265902	-0.243017
3	0	265932	-0.242968
3	0	265962	-0.243117
3	0	265992	-0.24314
3	0	266022	-0.243056
3	0	266052	-0.243121
3	0	266082	-0.243101
3	0	266112	-0.243185
3	0	266142	-0.243277
3	0	266172	-0.243376
3	0	266202	-0.2433
3	0	266232	-0.243395
3	0	266262	-0.243357
3	0	266292	-0.243476
3	0	266322	-0.24346
3	0	266352	-0.243479
3	0	266382	-0.243334
3	0	266412	-0.243323
3	0	266442	-0.243418
3	0	266472	-0.243583
3	0	266502	-0.243594
3	0	266532	-0.243583
3	0	266562	-0.244052
3	0	266592	-0.244003
3	0	266622	-0.244278
3	0	266652	-0.244274
3	0	266682	-0.244698
3	0	266712	-0.244617
3	0	266742	-0.245098
3	0	266772	-0.244667
3	0	266802	-0.245014
3	0	266832	-0.245076
3	0	266862	-0.245091
3	0	266892	-0.245622
3	0	266922	-0.245427
3	0	266952	-0.24574
3	0	266982	-0.247897
3	0	267012	-0.247943
3	0	267042	-0.247848
3	0	267072	-0.245461
3	0	267102	-0.246714
3	0	267132	-0.24687
3	0	267162	-0.246485
3	0	267192	-0.246603
3	0	267222	-0.246706
3	0	267252	-0.24624
3	0	267282	-0.245935
3	0	267312	-0.246171
3	0	267342	-0.24653
3	0	267372	-0.246702
3	0	267402	-0.246706
3	0	267432	-0.246389
3	0	267462	-0.246698
3	0	267492	-0.247046
3	0	267522	-0.247084
3	0	267552	-0.246771
3	0	267582	-0.247099
3	0	267612	-0.247241
3	0	267642	-0.247229
3	0	267672	-0.247416
3	0	267702	-0.247317
3	0	267732	-0.247264
3	0	267762	-0.247554
3	0	267792	-0.247477
3	0	267822	-0.247409
3	0	267852	-0.247626
3	0	267882	-0.247577
3	0	267912	-0.247771
3	0	267942	-0.247836
3	0	267972	-0.248069
3	0	268002	-0.248096
3	0	268032	-0.248333
3	0	268062	-0.24818
3	0	268092	-0.248329
3	0	268122	-0.248493
3	0	268152	-0.248608
3	0	268182	-0.248749
3	0	268212	-0.24876
3	0	268242	-0.24889
3	0	268272	-0.248963
3	0	268302	-0.249062
3	0	268332	-0.249215
3	0	268362	-0.249257
3	0	268392	-0.24936
3	0	268422	-0.249406
3	0	268452	-0.249471
3	0	268482	-0.249658
3	0	268512	-0.249673
3	0	268542	-0.249921
3	0	268572	-0.250017
3	0	268602	-0.250166
3	0	268632	-0.250131
3	0	268662	-0.250043
3	0	268692	-0.250227
3	0	268722	-0.250211
3	0	268752	-0.250349
3	0	268782	-0.250418
3	0	268812	-0.250536
3	0	268842	-0.250643
3	0	268872	-0.250654
3	0	268902	-0.250807
3	0	268932	-0.250933
3	0	268962	-0.250895
3	0	268992	-0.251029
3	0	269022	-0.251166
3	0	269052	-0.25112
3	0	269082	-0.251323
3	0	269112	-0.251319
3	0	269142	-0.251441
3	0	269172	-0.251552
3	0	269202	-0.25154
3	0	269232	-0.25159
3	0	269262	-0.25154
3	0	269292	-0.251689
3	0	269322	-0.251808
3	0	269352	-0.251865
3	0	269382	-0.251884
3	0	269412	-0.251983
3	0	269442	-0.252018
3	0	269472	-0.252174
3	0	269502	-0.252308
3	0	269532	-0.252277
3	0	269562	-0.252548
3	0	269592	-0.252418
3	0	269622	-0.252457
3	0	269652	-0.252556
3	0	269682	-0.252537
3	0	269712	-0.25259
3	0	269742	-0.252671
3	0	269772	-0.252934
3	0	269802	-0.252923
3	0	269832	-0.252964
3	0	269862	-0.253083
3	0	269892	-0.253049
3	0	269922	-0.253167
3	0	269952	-0.253113
3	0	269982	-0.253163
3	0	270012	-0.253278
3	0	270042	-0.253278
3	0	270072	-0.253281
3	0	270102	-0.253453
3	0	270132	-0.253407
3	0	270162	-0.253503
3	0	270192	-0.253625
3	0	270222	-0.253656
3	0	270252	-0.253701
3	0	270282	-0.253782
3	0	270312	-0.253824
3	0	270342	-0.253858
3	0	270372	-0.253835
3	0	270402	-0.253969
3	0	270432	-0.254026
3	0	270462	-0.254049
3	0	270492	-0.254183
3	0	270522	-0.254114
3	0	270552	-0.254045
3	0	270582	-0.254129
3	0	270612	-0.254099
3	0	270642	-0.254194
3	0	270672	-0.254194
3	0	270702	-0.254221
3	0	270732	-0.254297
3	0	270762	-0.254343
3	0	270792	-0.254358
3	0	270822	-0.254431
3	0	270852	-0.254446
3	0	270882	-0.254522
3	0	270912	-0.254496
3	0	270942	-0.254618
3	0	270972	-0.254461
3	0	271002	-0.254515
3	0	271032	-0.254534
3	0	271062	-0.254637
3	0	271092	-0.254645
3	0	271122	-0.254687
3	0	271152	-0.254633
3	0	271182	-0.255447
3	0	271212	-0.255469
3	0	271242	-0.25545
3	0	271272	-0.255439
3	0	271302	-0.254889
3	0	271332	-0.254847
3	0	271362	-0.2549
3	0	271392	-0.255133
3	0	271422	-0.25521
3	0	271452	-0.255034
3	0	271482	-0.255046
3	0	271512	-0.255053
3	0	271542	-0.255137
3	0	271572	-0.255301
3	0	271602	-0.255221
3	0	271632	-0.255317
3	0	271662	-0.255275
3	0	271692	-0.255378
3	0	271722	-0.255397
3	0	271752	-0.255405
3	0	271782	-0.255408
3	0	271812	-0.255565
3	0	271842	-0.255462
3	0	271872	-0.25555
3	0	271902	-0.255676
3	0	271932	-0.255683
3	0	271962	-0.255645
3	0	271992	-0.255657
3	0	272022	-0.255683
3	0	272052	-0.255699
3	0	272082	-0.255805
3	0	272112	-0.255786
3	0	272142	-0.255958
3	0	272172	-0.255786
3	0	272202	-0.255855
3	0	272232	-0.255958
3	0	272262	-0.25587
3	0	272292	-0.255828
3	0	272322	-0.255916
3	0	272352	-0.256008
3	0	272382	-0.256161
3	0	272412	-0.255993
3	0	272442	-0.256019
3	0	272472	-0.256107
3	0	272502	-0.256183
3	0	272532	-0.256321
3	0	272562	-0.256248
3	0	272592	-0.256321
3	0	272622	-0.256374
3	0	272652	-0.256367
3	0	272682	-0.256462
3	0	272712	-0.256684
3	0	272742	-0.256485
3	0	272772	-0.256397
3	0	272802	-0.256588
3	0	272832	-0.256649
3	0	272862	-0.256615
3	0	272892	-0.256634
3	0	272922	-0.256642
3	0	272952	-0.256714
3	0	272982	-0.256875
3	0	273012	-0.256718
3	0	273042	-0.256814
3	0	273072	-0.256901
3	0	273102	-0.256978
3	0	273132	-0.257016
3	0	273162	-0.257081
3	0	273192	-0.257096
3	0	273222	-0.256768
3	0	273252	-0.256856
3	0	273282	-0.25702
3	0	273312	-0.257077
3	0	273342	-0.25726
3	0	273372	-0.25697
3	0	273402	-0.256989
3	0	273432	-0.257066
3	0	273462	-0.257004
3	0	273492	-0.25702
3	0	273522	-0.257108
3	0	273552	-0.257264
3	0	273582	-0.257302
3	0	273612	-0.257134
3	0	273642	-0.257104
3	0	273672	-0.25718
3	0	273702	-0.25723
3	0	273732	-0.257176
3	0	273762	-0.257325
3	0	273792	-0.257104
3	0	273822	-0.257192
3	0	273852	-0.257188
3	0	273882	-0.257302
3	0	273912	-0.257493
3	0	273942	-0.257428
3	0	273972	-0.257318
3	0	274002	-0.257344
3	0	274032	-0.257405
3	0	274062	-0.257524
3	0	274093	-0.257444
3	0	274123	-0.257428
3	0	274153	-0.257466
3	0	274183	-0.257528
3	0	274213	-0.257505
3	0	274243	-0.257676
3	0	274273	-0.2576
3	0	274303	-0.25768
3	0	274333	-0.257554
3	0	274363	-0.2576
3	0	274393	-0.257623
3	0	274423	-0.257531
3	0	274453	-0.257466
3	0	274483	-0.257535
3	0	274513	-0.257589
3	0	274543	-0.257634
3	0	274573	-0.257684
3	0	274603	-0.257795
3	0	274633	-0.257745
3	0	274663	-0.257799
3	0	274693	-0.257703
3	0	274723	-0.257665
3	0	274753	-0.257638
3	0	274783	-0.257657
3	0	274813	-0.2576
3	0	274843	-0.25768
3	0	274873	-0.257501
3	0	274903	-0.257531
3	0	274933	-0.257623
3	0	274963	-0.257619
3	0	274993	-0.257573
3	0	275023	-0.257741
3	0	275053	-0.257699
3	0	275083	-0.257673
3	0	275113	-0.257745
3	0	275143	-0.257795
3	0	275173	-0.257852
3	0	275203	-0.258032
3	0	275233	-0.258074
3	0	275263	-0.258093
3	0	275293	-0.257852
3	0	275323	-0.257875
3	0	275353	-0.257997
3	0	275383	-0.258009
3	0	275413	-0.257982
3	0	275443	-0.258039
3	0	275473	-0.258074
3	0	275503	-0.257986
3	0	275533	-0.258012
3	0	275563	-0.258089
3	0	275593	-0.258245
3	0	275623	-0.258211
3	0	275653	-0.258223
3	0	275683	-0.258173
3	0	275713	-0.258177
3	0	275743	-0.258093
3	0	275773	-0.258081
3	0	275803	-0.25841
3	0	275833	-0.258139
3	0	275863	-0.258112
3	0	275893	-0.258154
3	0	275923	-0.258196
3	0	275953	-0.258238
3	0	275983	-0.25828
3	0	276013	-0.258219
3	0	276043	-0.258284
3	0	276073	-0.258207
3	0	276103	-0.258307
3	0	276133	-0.25831
3	0	276163	-0.258329
3	0	276193	-0.258303
3	0	276223	-0.258249
3	0	276253	-0.25828
3	0	276283	-0.258337
3	0	276313	-0.258219
3	0	276343	-0.25828
3	0	276373	-0.258551
3	0	276403	-0.258555
3	0	276433	-0.258333
3	0	276463	-0.258383
3	0	276493	-0.258421
3	0	276523	-0.258471
3	0	276553	-0.258391
3	0	276583	-0.258497
3	0	276613	-0.258494
3	0	276643	-0.258593
3	0	276673	-0.258383
3	0	276703	-0.258417
3	0	276733	-0.258497
3	0	276763	-0.258413
3	0	276793	-0.258593
3	0	276823	-0.258478
3	0	276853	-0.258612
3	0	276883	-0.258616
3	0	276913	-0.258593
3	0	276943	-0.258623
3	0	276973	-0.258608
3	0	277003	-0.258643
3	0	277033	-0.2587
3	0	277063	-0.258574
3	0	277093	-0.258807
3	0	277123	-0.259005
3	0	277153	-0.25891
3	0	277183	-0.258937
3	0	277213	-0.258707
3	0	277243	-0.259044
3	0	277273	-0.259021
3	0	277303	-0.259024
3	0	277333	-0.258727
3	0	277363	-0.258662
3	0	277393	-0.25862
3	0	277423	-0.258612
3	0	277453	-0.258627
3	0	277483	-0.258646
3	0	277513	-0.258505
3	0	277543	-0.258509
3	0	277573	-0.258501
3	0	277603	-0.258429
3	0	277633	-0.258513
3	0	277663	-0.258692
3	0	277693	-0.258707
3	0	277723	-0.258589
3	0	277753	-0.258604
3	0	277783	-0.258635
3	0	277813	-0.258654
3	0	277843	-0.258685
3	0	277873	-0.258612
3	0	277903	-0.258559
3	0	277933	-0.258646
3	0	277963	-0.258738
3	0	277993	-0.258631
3	0	278023	-0.25873
3	0	278053	-0.25899
3	0	278083	-0.258921
3	0	278113	-0.258658
3	0	278143	-0.259024
3	0	278173	-0.258749
3	0	278203	-0.258795
3	0	278233	-0.258902
3	0	278263	-0.25886
3	0	278293	-0.258795
3	0	278323	-0.258761
3	0	278353	-0.258776
3	0	278383	-0.258727
3	0	278413	-0.258761
3	0	278443	-0.258769
3	0	278473	-0.258803
3	0	278503	-0.25883
3	0	278533	-0.258872
3	0	278563	-0.258814
3	0	278593	-0.258807
3	0	278623	-0.258788
3	0	278653	-0.258791
3	0	278683	-0.258883
3	0	278713	-0.25886
3	0	278743	-0.258788
3	0	278773	-0.258761
3	0	278803	-0.258853
3	0	278833	-0.258769
3	0	278848	-0.258746