File: data_dir/600_B_immertest4/600_B_12_CP_C03.mpt
EC-Lab ASCII FILE
Nb header lines : 57

Chronopotentiometry

Run on channel : 3 (SN 13150)
User :
Electrode connection : standard
Potential control : Ewe
Ewe ctrl range : min = -1.00 V, max = 1.00 V
Ewe,I filtering : 5 Hz
Safety Limits :
	Do not start on E overload
Channel : Floating
Acquisition started on : 07/01/2024 16:51:05.709
Loaded Setting File :  C:\Users\mAtsuhitA\Desktop\Oyafuso\20240624_???????4\1540_A.mps
Saved on :
	File : 600_B_12_CP_C03.mpr
	Directory : C:\Users\mAtsuhitA\Desktop\Oyafuso\20240624_???????4\600_B\
	Host : 192.109.209.100
Device : VSP-300 (SN 0834)
Address : 192.109.209.128
EC-Lab for windows v11.50 (software)
Internet server v11.50 (firmware)
Command interpretor v11.50 (firmware)
Electrode material :
Initial state :
Electrolyte :
Comments :
Cable : standard
Electrode surface area : 0.001 cm2
Characteristic mass : 0.001 g
Equivalent Weight : 0.000 g/eq.
Density : 0.000 g/cm3
Volume (V) : 0.001 cm3
Text export
   Mode : Standard
   Time format : Elapsed
Cycle Definition : Charge/Discharge alternance
Is                  200.000
unit Is             nA
vs.                 <None>
ts (h:m:s)          1000:40:0.0000
EM (V)              0.000
dQM                 200.133
unit dQM            uA.h
record              Ewe
dEs (mV)            10.00
dts (s)             10.0000
E range min (V)     -1.000
E range max (V)     1.000
I Range             1 uA
Bandwidth           8
goto Ns'            0
nc cycles           0

mode	ox/red	error	control changes	Ns changes	counter inc.	Ns	time/s	control/mA	Ewe/V	I/mA	dQ/C	(Q-Qo)/C	half cycle	Q charge/discharge/mA.h	I Range	Energy charge/W.h	Energy discharge/W.h	Capacitance charge/uF	Capacitance discharge/uF	step time/s	Q discharge/mA.h	Q charge/mA.h	Capacity/mA.h	Efficiency/%	cycle number	P/W
1	1	0	1	0	0	0	279633	0.0002	-0.254371	-1.40571e-07	0.0000000E+000	0.0000000E+000	0	0.000000000000000E+000	43	0.000000000000000E+000	0.000000000000000E+000	0.000000000000000E+000	0.000000000000000E+000	279633	0.000000000000000E+000	0.000000000000000E+000	0.000000000000000E+000	0.0000000E+000	0.000000000000000E+000	3.57573e-11
1	1	0	1	0	0	0	279633	0.0002	-0.244338	0.000156624	6.32839e-09	6.32839e-09	0	1.75788e-09	43	4.29519e-13	0.000000000000000E+000	0.000000000000000E+000	0.000000000000000E+000	279633	0.000000000000000E+000	1.75788e-09	1.75788e-09	0.0000000E+000	0.000000000000000E+000	-3.82692e-08
1	1	0	1	0	0	0	279633	0.0002	-0.234288	0.000200499	3.64086e-08	3.64086e-08	0	1.01135e-08	43	2.38714e-12	0.000000000000000E+000	3.62269	0.000000000000000E+000	279633	0.000000000000000E+000	1.01135e-08	1.01135e-08	0.0000000E+000	0.000000000000000E+000	-4.69745e-08
1	1	0	1	0	0	0	279633	0.0002	-0.224272	0.000199653	8.79216e-08	8.79216e-08	0	2.44227e-08	43	5.59629e-12	0.000000000000000E+000	4.38164	0.000000000000000E+000	279633	0.000000000000000E+000	2.44227e-08	2.44227e-08	0.0000000E+000	0.000000000000000E+000	-4.47767e-08
1	1	0	1	0	0	0	279634	0.0002	-0.214242	0.000199688	1.59597e-07	1.59597e-07	0	4.43324e-08	43	9.86178e-12	0.000000000000000E+000	5.30276	0.000000000000000E+000	279634	0.000000000000000E+000	4.43324e-08	4.43324e-08	0.0000000E+000	0.000000000000000E+000	-4.27814e-08
1	1	0	1	0	0	0	279634	0.0002	-0.204241	0.000199714	2.60723e-07	2.60723e-07	0	7.24229e-08	43	1.5599e-11	0.000000000000000E+000	6.50223	0.000000000000000E+000	279634	0.000000000000000E+000	7.24229e-08	7.24229e-08	0.0000000E+000	0.000000000000000E+000	-4.07899e-08
1	1	0	1	0	0	0	279635	0.0002	-0.194225	0.000199726	4.47271e-07	4.47271e-07	0	1.24242e-07	43	2.56636e-11	0.000000000000000E+000	8.92521	0.000000000000000E+000	279635	0.000000000000000E+000	1.24242e-07	1.24242e-07	0.0000000E+000	0.000000000000000E+000	-3.87918e-08
1	1	0	1	0	0	0	279638	0.0002	-0.184221	0.00019976	1.08255e-06	1.08255e-06	0	3.00707e-07	43	5.81722e-11	0.000000000000000E+000	18.0071	0.000000000000000E+000	279638	0.000000000000000E+000	3.00707e-07	3.00707e-07	0.0000000E+000	0.000000000000000E+000	-3.68e-08
1	1	0	1	0	0	0	279648	0.0002	-0.179986	0.000199833	3.08044e-06	3.08044e-06	0	8.55678e-07	43	1.58059e-10	0.000000000000000E+000	47.8684	0.000000000000000E+000	279648	0.000000000000000E+000	8.55678e-07	8.55678e-07	0.0000000E+000	0.000000000000000E+000	-3.59672e-08
1	1	0	1	0	0	0	279658	0.0002	-0.178119	0.000199726	5.07832e-06	5.07832e-06	0	1.41064e-06	43	2.56909e-10	0.000000000000000E+000	76.6892	0.000000000000000E+000	279658	0.000000000000000E+000	1.41064e-06	1.41064e-06	0.0000000E+000	0.000000000000000E+000	-3.5575e-08
1	1	0	1	0	0	0	279668	0.0002	-0.176309	0.000199787	7.0761e-06	7.0761e-06	0	1.96558e-06	43	3.5475e-10	0.000000000000000E+000	104.015	0.000000000000000E+000	279668	0.000000000000000E+000	1.96558e-06	1.96558e-06	0.0000000E+000	0.000000000000000E+000	-3.52243e-08
1	1	0	1	0	0	0	279678	0.0002	-0.17401	0.000199814	9.07401e-06	9.07401e-06	0	2.52056e-06	43	4.51321e-10	0.000000000000000E+000	129.024	0.000000000000000E+000	279678	0.000000000000000E+000	2.52056e-06	2.52056e-06	0.0000000E+000	0.000000000000000E+000	-3.47697e-08
1	1	0	1	0	0	0	279688	0.0002	-0.172891	0.000199791	1.10719e-05	1.10719e-05	0	3.07553e-06	43	5.47272e-10	0.000000000000000E+000	154.967	0.000000000000000E+000	279688	0.000000000000000E+000	3.07553e-06	3.07553e-06	0.0000000E+000	0.000000000000000E+000	-3.45421e-08
1	1	0	1	0	0	0	279698	0.0002	-0.170654	0.000199737	1.30699e-05	1.30699e-05	0	3.63051e-06	43	6.41981e-10	0.000000000000000E+000	177.376	0.000000000000000E+000	279698	0.000000000000000E+000	3.63051e-06	3.63051e-06	0.0000000E+000	0.000000000000000E+000	-3.4086e-08
1	1	0	1	0	0	0	279708	0.0002	-0.169669	0.000199745	1.50677e-05	1.50677e-05	0	4.18549e-06	43	7.36143e-10	0.000000000000000E+000	201.792	0.000000000000000E+000	279708	0.000000000000000E+000	4.18549e-06	4.18549e-06	0.0000000E+000	0.000000000000000E+000	-3.38905e-08
1	1	0	1	0	0	0	279718	0.0002	-0.167771	0.000199806	1.70656e-05	1.70656e-05	0	4.74045e-06	43	8.2925e-10	0.000000000000000E+000	222.883	0.000000000000000E+000	279718	0.000000000000000E+000	4.74045e-06	4.74045e-06	0.0000000E+000	0.000000000000000E+000	-3.35217e-08
1	1	0	1	0	0	0	279728	0.0002	-0.166228	0.000199749	1.90635e-05	1.90635e-05	0	5.29543e-06	43	9.21502e-10	0.000000000000000E+000	244.06	0.000000000000000E+000	279728	0.000000000000000E+000	5.29543e-06	5.29543e-06	0.0000000E+000	0.000000000000000E+000	-3.32039e-08
1	1	0	1	0	0	0	279738	0.0002	-0.16472	0.00019976	2.10614e-05	2.10614e-05	0	5.85039e-06	43	1.01292e-09	0.000000000000000E+000	264.529	0.000000000000000E+000	279738	0.000000000000000E+000	5.85039e-06	5.85039e-06	0.0000000E+000	0.000000000000000E+000	-3.29045e-08
1	1	0	1	0	0	0	279748	0.0002	-0.163238	0.000199799	2.30592e-05	2.30592e-05	0	6.40534e-06	43	1.1035e-09	0.000000000000000E+000	284.331	0.000000000000000E+000	279748	0.000000000000000E+000	6.40534e-06	6.40534e-06	0.0000000E+000	0.000000000000000E+000	-3.26148e-08
1	1	0	1	0	0	0	279758	0.0002	-0.161692	0.000199764	2.50572e-05	2.50572e-05	0	6.96033e-06	43	1.19324e-09	0.000000000000000E+000	303.185	0.000000000000000E+000	279758	0.000000000000000E+000	6.96033e-06	6.96033e-06	0.0000000E+000	0.000000000000000E+000	-3.23002e-08
1	1	0	1	0	0	0	279768	0.0002	-0.160401	0.000199779	2.7055e-05	2.7055e-05	0	7.51527e-06	43	1.28226e-09	0.000000000000000E+000	322.324	0.000000000000000E+000	279768	0.000000000000000E+000	7.51527e-06	7.51527e-06	0.0000000E+000	0.000000000000000E+000	-3.20449e-08
1	1	0	1	0	0	0	279778	0.0002	-0.158988	0.000199764	2.90528e-05	2.90528e-05	0	8.07022e-06	43	1.37049e-09	0.000000000000000E+000	340.396	0.000000000000000E+000	279778	0.000000000000000E+000	8.07022e-06	8.07022e-06	0.0000000E+000	0.000000000000000E+000	-3.17602e-08
1	1	0	1	0	0	0	279788	0.0002	-0.157465	0.000199768	3.10506e-05	3.10506e-05	0	8.62516e-06	43	1.45787e-09	0.000000000000000E+000	357.423	0.000000000000000E+000	279788	0.000000000000000E+000	8.62516e-06	8.62516e-06	0.0000000E+000	0.000000000000000E+000	-3.14564e-08
1	1	0	1	0	0	0	279798	0.0002	-0.155575	0.00019981	3.30484e-05	3.30484e-05	0	9.18011e-06	43	1.54421e-09	0.000000000000000E+000	372.319	0.000000000000000E+000	279798	0.000000000000000E+000	9.18011e-06	9.18011e-06	0.0000000E+000	0.000000000000000E+000	-3.10854e-08
1	1	0	1	0	0	0	279808	0.0002	-0.154196	0.00019976	3.50463e-05	3.50463e-05	0	9.73507e-06	43	1.62978e-09	0.000000000000000E+000	388.789	0.000000000000000E+000	279808	0.000000000000000E+000	9.73507e-06	9.73507e-06	0.0000000E+000	0.000000000000000E+000	-3.08023e-08
1	1	0	1	0	0	0	279818	0.0002	-0.152654	0.000199776	3.70441e-05	3.70441e-05	0	1.029e-05	43	1.7145e-09	0.000000000000000E+000	404.038	0.000000000000000E+000	279818	0.000000000000000E+000	1.029e-05	1.029e-05	0.0000000E+000	0.000000000000000E+000	-3.04965e-08
1	1	0	1	0	0	0	279828	0.0002	-0.151321	0.000199791	3.9042e-05	3.9042e-05	0	1.0845e-05	43	1.79848e-09	0.000000000000000E+000	419.728	0.000000000000000E+000	279828	0.000000000000000E+000	1.0845e-05	1.0845e-05	0.0000000E+000	0.000000000000000E+000	-3.02326e-08
1	1	0	1	0	0	0	279838	0.0002	-0.149893	0.000199787	4.10399e-05	4.10399e-05	0	1.14e-05	43	1.88166e-09	0.000000000000000E+000	434.535	0.000000000000000E+000	279838	0.000000000000000E+000	1.14e-05	1.14e-05	0.0000000E+000	0.000000000000000E+000	-2.99467e-08
1	1	0	1	0	0	0	279848	0.0002	-0.147911	0.000199768	4.30377e-05	4.30377e-05	0	1.19549e-05	43	1.96374e-09	0.000000000000000E+000	446.323	0.000000000000000E+000	279848	0.000000000000000E+000	1.19549e-05	1.19549e-05	0.0000000E+000	0.000000000000000E+000	-2.95479e-08
1	1	0	1	0	0	0	279858	0.0002	-0.146166	0.000199745	4.50355e-05	4.50355e-05	0	1.25099e-05	43	2.04486e-09	0.000000000000000E+000	458.74	0.000000000000000E+000	279858	0.000000000000000E+000	1.25099e-05	1.25099e-05	0.0000000E+000	0.000000000000000E+000	-2.91959e-08
1	1	0	1	0	0	0	279868	0.0002	-0.145158	0.000199756	4.70332e-05	4.70332e-05	0	1.30648e-05	43	2.12541e-09	0.000000000000000E+000	474.219	0.000000000000000E+000	279868	0.000000000000000E+000	1.30648e-05	1.30648e-05	0.0000000E+000	0.000000000000000E+000	-2.89963e-08
1	1	0	1	0	0	0	279878	0.0002	-0.143382	0.000199787	4.90309e-05	4.90309e-05	0	1.36197e-05	43	2.20497e-09	0.000000000000000E+000	485.666	0.000000000000000E+000	279878	0.000000000000000E+000	1.36197e-05	1.36197e-05	0.0000000E+000	0.000000000000000E+000	-2.8646e-08
1	1	0	1	0	0	0	279888	0.0002	-0.141355	0.000199741	5.10286e-05	5.10286e-05	0	1.41746e-05	43	2.28341e-09	0.000000000000000E+000	495.502	0.000000000000000E+000	279888	0.000000000000000E+000	1.41746e-05	1.41746e-05	0.0000000E+000	0.000000000000000E+000	-2.82344e-08
1	1	0	1	0	0	0	279898	0.0002	-0.140316	0.000199768	5.30261e-05	5.30261e-05	0	1.47295e-05	43	2.36127e-09	0.000000000000000E+000	509.758	0.000000000000000E+000	279898	0.000000000000000E+000	1.47295e-05	1.47295e-05	0.0000000E+000	0.000000000000000E+000	-2.80307e-08
1	1	0	1	0	0	0	279908	0.0002	-0.138586	0.000199749	5.50238e-05	5.50238e-05	0	1.52844e-05	43	2.43817e-09	0.000000000000000E+000	520.31	0.000000000000000E+000	279908	0.000000000000000E+000	1.52844e-05	1.52844e-05	0.0000000E+000	0.000000000000000E+000	-2.76825e-08
1	1	0	1	0	0	0	279918	0.0002	-0.136975	0.000199783	5.70216e-05	5.70216e-05	0	1.58393e-05	43	2.51419e-09	0.000000000000000E+000	531.108	0.000000000000000E+000	279918	0.000000000000000E+000	1.58393e-05	1.58393e-05	0.0000000E+000	0.000000000000000E+000	-2.73653e-08
1	1	0	1	0	0	0	279928	0.0002	-0.135398	0.000199818	5.90194e-05	5.90194e-05	0	1.63943e-05	43	2.58933e-09	0.000000000000000E+000	541.759	0.000000000000000E+000	279928	0.000000000000000E+000	1.63943e-05	1.63943e-05	0.0000000E+000	0.000000000000000E+000	-2.70549e-08
1	1	0	1	0	0	0	279938	0.0002	-0.134356	0.000199714	6.10173e-05	6.10173e-05	0	1.69492e-05	43	2.66389e-09	0.000000000000000E+000	554.789	0.000000000000000E+000	279938	0.000000000000000E+000	1.69492e-05	1.69492e-05	0.0000000E+000	0.000000000000000E+000	-2.68327e-08
1	1	0	1	0	0	0	279948	0.0002	-0.132408	0.000199753	6.30151e-05	6.30151e-05	0	1.75042e-05	43	2.73737e-09	0.000000000000000E+000	562.986	0.000000000000000E+000	279948	0.000000000000000E+000	1.75042e-05	1.75042e-05	0.0000000E+000	0.000000000000000E+000	-2.64489e-08
1	1	0	1	0	0	0	279958	0.0002	-0.130804	0.000199822	6.50129e-05	6.50129e-05	0	1.80591e-05	43	2.80996e-09	0.000000000000000E+000	572.629	0.000000000000000E+000	279958	0.000000000000000E+000	1.80591e-05	1.80591e-05	0.0000000E+000	0.000000000000000E+000	-2.61375e-08
1	1	0	1	0	0	0	279968	0.0002	-0.129342	0.000199787	6.70107e-05	6.70107e-05	0	1.86141e-05	43	2.88174e-09	0.000000000000000E+000	582.72	0.000000000000000E+000	279968	0.000000000000000E+000	1.86141e-05	1.86141e-05	0.0000000E+000	0.000000000000000E+000	-2.58409e-08
1	1	0	1	0	0	0	279978	0.0002	-0.127585	0.000199783	6.90086e-05	6.90086e-05	0	1.9169e-05	43	2.95254e-09	0.000000000000000E+000	591.065	0.000000000000000E+000	279978	0.000000000000000E+000	1.9169e-05	1.9169e-05	0.0000000E+000	0.000000000000000E+000	-2.54894e-08
1	1	0	1	0	0	0	279988	0.0002	-0.12623	0.000199802	7.10063e-05	7.10063e-05	0	1.9724e-05	43	3.02259e-09	0.000000000000000E+000	601.196	0.000000000000000E+000	279988	0.000000000000000E+000	1.9724e-05	1.9724e-05	0.0000000E+000	0.000000000000000E+000	-2.5221e-08
1	1	0	1	0	0	0	279998	0.0002	-0.124733	0.000199776	7.30042e-05	7.30042e-05	0	2.02789e-05	43	3.09181e-09	0.000000000000000E+000	610.375	0.000000000000000E+000	279998	0.000000000000000E+000	2.02789e-05	2.02789e-05	0.0000000E+000	0.000000000000000E+000	-2.49186e-08
1	1	0	1	0	0	0	280008	0.0002	-0.123278	0.00019981	7.5002e-05	7.5002e-05	0	2.08339e-05	43	3.16022e-09	0.000000000000000E+000	619.543	0.000000000000000E+000	280008	0.000000000000000E+000	2.08339e-05	2.08339e-05	0.0000000E+000	0.000000000000000E+000	-2.46322e-08
1	1	0	1	0	0	0	280018	0.0002	-0.121621	0.000199772	7.69998e-05	7.69998e-05	0	2.13888e-05	43	3.22772e-09	0.000000000000000E+000	627.456	0.000000000000000E+000	280018	0.000000000000000E+000	2.13888e-05	2.13888e-05	0.0000000E+000	0.000000000000000E+000	-2.42965e-08
1	1	0	1	0	0	0	280028	0.0002	-0.120212	0.000199772	7.89976e-05	7.89976e-05	0	2.19438e-05	43	3.29443e-09	0.000000000000000E+000	636.429	0.000000000000000E+000	280028	0.000000000000000E+000	2.19438e-05	2.19438e-05	0.0000000E+000	0.000000000000000E+000	-2.4015e-08
1	1	0	1	0	0	0	280038	0.0002	-0.11823	0.000199776	8.09956e-05	8.09956e-05	0	2.24988e-05	43	3.36004e-09	0.000000000000000E+000	642.27	0.000000000000000E+000	280038	0.000000000000000E+000	2.24988e-05	2.24988e-05	0.0000000E+000	0.000000000000000E+000	-2.36195e-08
1	1	0	1	0	0	0	280048	0.0002	-0.116646	0.000199787	8.29935e-05	8.29935e-05	0	2.30537e-05	43	3.42478e-09	0.000000000000000E+000	649.946	0.000000000000000E+000	280048	0.000000000000000E+000	2.30537e-05	2.30537e-05	0.0000000E+000	0.000000000000000E+000	-2.33043e-08
1	1	0	1	0	0	0	280058	0.0002	-0.115492	0.000199776	8.49914e-05	8.49914e-05	0	2.36087e-05	43	3.48888e-09	0.000000000000000E+000	659.636	0.000000000000000E+000	280058	0.000000000000000E+000	2.36087e-05	2.36087e-05	0.0000000E+000	0.000000000000000E+000	-2.30726e-08
1	1	0	1	0	0	0	280068	0.0002	-0.114141	0.00019973	8.69893e-05	8.69893e-05	0	2.41637e-05	43	3.55222e-09	0.000000000000000E+000	668.132	0.000000000000000E+000	280068	0.000000000000000E+000	2.41637e-05	2.41637e-05	0.0000000E+000	0.000000000000000E+000	-2.27973e-08
1	1	0	1	0	0	0	280078	0.0002	-0.112094	0.000199768	8.89872e-05	8.89872e-05	0	2.47187e-05	43	3.61443e-09	0.000000000000000E+000	672.899	0.000000000000000E+000	280078	0.000000000000000E+000	2.47187e-05	2.47187e-05	0.0000000E+000	0.000000000000000E+000	-2.23928e-08
1	1	0	1	0	0	0	280088	0.0002	-0.110956	0.000199776	9.0985e-05	9.0985e-05	0	2.52736e-05	43	3.676e-09	0.000000000000000E+000	682.137	0.000000000000000E+000	280088	0.000000000000000E+000	2.52736e-05	2.52736e-05	0.0000000E+000	0.000000000000000E+000	-2.21663e-08
1	1	0	1	0	0	0	280098	0.0002	-0.109391	0.000199776	9.29829e-05	9.29829e-05	0	2.58286e-05	43	3.73671e-09	0.000000000000000E+000	689.028	0.000000000000000E+000	280098	0.000000000000000E+000	2.58286e-05	2.58286e-05	0.0000000E+000	0.000000000000000E+000	-2.18536e-08
1	1	0	1	0	0	0	280108	0.0002	-0.107733	0.000199741	9.49807e-05	9.49807e-05	0	2.63835e-05	43	3.7965e-09	0.000000000000000E+000	695.294	0.000000000000000E+000	280108	0.000000000000000E+000	2.63835e-05	2.63835e-05	0.0000000E+000	0.000000000000000E+000	-2.15188e-08
1	1	0	1	0	0	0	280118	0.0002	-0.106053	0.000199802	9.69786e-05	9.69786e-05	0	2.69385e-05	43	3.85535e-09	0.000000000000000E+000	701.294	0.000000000000000E+000	280118	0.000000000000000E+000	2.69385e-05	2.69385e-05	0.0000000E+000	0.000000000000000E+000	-2.11897e-08
1	1	0	1	0	0	0	280128	0.0002	-0.104858	0.000199749	9.89763e-05	9.89763e-05	0	2.74934e-05	43	3.91354e-09	0.000000000000000E+000	709.607	0.000000000000000E+000	280128	0.000000000000000E+000	2.74934e-05	2.74934e-05	0.0000000E+000	0.000000000000000E+000	-2.09453e-08
1	1	0	1	0	0	0	280138	0.0002	-0.103579	0.00019976	0.000100974	0.000100974	0	2.80483e-05	43	3.97102e-09	0.000000000000000E+000	717.351	0.000000000000000E+000	280138	0.000000000000000E+000	2.80483e-05	2.80483e-05	0.0000000E+000	0.000000000000000E+000	-2.06909e-08
1	1	0	1	0	0	0	280148	0.0002	-0.101826	0.000199768	0.000102972	0.000102972	0	2.86033e-05	43	4.02753e-09	0.000000000000000E+000	722.547	0.000000000000000E+000	280148	0.000000000000000E+000	2.86033e-05	2.86033e-05	0.0000000E+000	0.000000000000000E+000	-2.03416e-08
1	1	0	1	0	0	0	280158	0.0002	-0.10015	0.000199776	0.00010497	0.00010497	0	2.91582e-05	43	4.08311e-09	0.000000000000000E+000	728.003	0.000000000000000E+000	280158	0.000000000000000E+000	2.91582e-05	2.91582e-05	0.0000000E+000	0.000000000000000E+000	-2.00075e-08
1	1	0	1	0	0	0	280168	0.0002	-0.0984277	0.000199783	0.000106968	0.000106968	0	2.97132e-05	43	4.13773e-09	0.000000000000000E+000	733.103	0.000000000000000E+000	280168	0.000000000000000E+000	2.97132e-05	2.97132e-05	0.0000000E+000	0.000000000000000E+000	-1.96642e-08
1	1	0	1	0	0	0	280178	0.0002	-0.0972554	0.00019976	0.000108965	0.000108965	0	3.02681e-05	43	4.1917e-09	0.000000000000000E+000	740.843	0.000000000000000E+000	280178	0.000000000000000E+000	3.02681e-05	3.02681e-05	0.0000000E+000	0.000000000000000E+000	-1.94278e-08
1	1	0	1	0	0	0	280188	0.0002	-0.0962397	0.000199822	0.000110963	0.000110963	0	3.08231e-05	43	4.24511e-09	0.000000000000000E+000	749.252	0.000000000000000E+000	280188	0.000000000000000E+000	3.08231e-05	3.08231e-05	0.0000000E+000	0.000000000000000E+000	-1.92308e-08
1	1	0	1	0	0	0	280198	0.0002	-0.0947925	0.000199787	0.000112961	0.000112961	0	3.13781e-05	43	4.29772e-09	0.000000000000000E+000	755.361	0.000000000000000E+000	280198	0.000000000000000E+000	3.13781e-05	3.13781e-05	0.0000000E+000	0.000000000000000E+000	-1.89383e-08
1	1	0	1	0	0	0	280208	0.0002	-0.0932881	0.000199795	0.000114959	0.000114959	0	3.19331e-05	43	4.34949e-09	0.000000000000000E+000	761.064	0.000000000000000E+000	280208	0.000000000000000E+000	3.19331e-05	3.19331e-05	0.0000000E+000	0.000000000000000E+000	-1.86385e-08
1	1	0	1	0	0	0	280218	0.0002	-0.0920814	0.000199795	0.000116957	0.000116957	0	3.2488e-05	43	4.4006e-09	0.000000000000000E+000	768.155	0.000000000000000E+000	280218	0.000000000000000E+000	3.2488e-05	3.2488e-05	0.0000000E+000	0.000000000000000E+000	-1.83974e-08
1	1	0	1	0	0	0	280228	0.0002	-0.0905159	0.000199745	0.000118955	0.000118955	0	3.3043e-05	43	4.45083e-09	0.000000000000000E+000	773.325	0.000000000000000E+000	280228	0.000000000000000E+000	3.3043e-05	3.3043e-05	0.0000000E+000	0.000000000000000E+000	-1.80801e-08
1	1	0	1	0	0	0	280238	0.0002	-0.0891947	0.000199776	0.000120953	0.000120953	0	3.3598e-05	43	4.50033e-09	0.000000000000000E+000	779.617	0.000000000000000E+000	280238	0.000000000000000E+000	3.3598e-05	3.3598e-05	0.0000000E+000	0.000000000000000E+000	-1.78189e-08
1	1	0	1	0	0	0	280248	0.0002	-0.0873656	0.000199791	0.00012295	0.00012295	0	3.41529e-05	43	4.54881e-09	0.000000000000000E+000	783.259	0.000000000000000E+000	280248	0.000000000000000E+000	3.41529e-05	3.41529e-05	0.0000000E+000	0.000000000000000E+000	-1.74549e-08
1	1	0	1	0	0	0	280258	0.0002	-0.0865409	0.000199764	0.000124948	0.000124948	0	3.47079e-05	43	4.59684e-09	0.000000000000000E+000	791.827	0.000000000000000E+000	280258	0.000000000000000E+000	3.47079e-05	3.47079e-05	0.0000000E+000	0.000000000000000E+000	-1.72878e-08
1	1	0	1	0	0	0	280268	0.0002	-0.085464	0.000199799	0.000126946	0.000126946	0	3.52628e-05	43	4.64427e-09	0.000000000000000E+000	799.035	0.000000000000000E+000	280268	0.000000000000000E+000	3.52628e-05	3.52628e-05	0.0000000E+000	0.000000000000000E+000	-1.70756e-08
1	1	0	1	0	0	0	280278	0.0002	-0.0845285	0.000199791	0.000128944	0.000128944	0	3.58178e-05	43	4.69118e-09	0.000000000000000E+000	806.859	0.000000000000000E+000	280278	0.000000000000000E+000	3.58178e-05	3.58178e-05	0.0000000E+000	0.000000000000000E+000	-1.6888e-08
1	1	0	1	0	0	0	280288	0.0002	-0.0826155	0.000199757	0.000130942	0.000130942	0	3.63727e-05	43	4.73702e-09	0.000000000000000E+000	809.668	0.000000000000000E+000	280288	0.000000000000000E+000	3.63727e-05	3.63727e-05	0.0000000E+000	0.000000000000000E+000	-1.6503e-08
1	1	0	1	0	0	0	280298	0.0002	-0.0814318	0.00019981	0.00013294	0.00013294	0	3.69277e-05	43	4.78222e-09	0.000000000000000E+000	816.049	0.000000000000000E+000	280298	0.000000000000000E+000	3.69277e-05	3.69277e-05	0.0000000E+000	0.000000000000000E+000	-1.62709e-08
1	1	0	1	0	0	0	280308	0.0002	-0.0805611	0.000199772	0.000134938	0.000134938	0	3.74827e-05	43	4.82693e-09	0.000000000000000E+000	823.91	0.000000000000000E+000	280308	0.000000000000000E+000	3.74827e-05	3.74827e-05	0.0000000E+000	0.000000000000000E+000	-1.60938e-08
1	1	0	1	0	0	0	280318	0.0002	-0.0789459	0.00019981	0.000136936	0.000136936	0	3.80377e-05	43	4.87074e-09	0.000000000000000E+000	827.944	0.000000000000000E+000	280318	0.000000000000000E+000	3.80377e-05	3.80377e-05	0.0000000E+000	0.000000000000000E+000	-1.57742e-08
1	1	0	1	0	0	0	280328	0.0002	-0.07785	0.000199757	0.000138933	0.000138933	0	3.85926e-05	43	4.91394e-09	0.000000000000000E+000	834.493	0.000000000000000E+000	280328	0.000000000000000E+000	3.85926e-05	3.85926e-05	0.0000000E+000	0.000000000000000E+000	-1.55511e-08
1	1	0	1	0	0	0	280338	0.0002	-0.0764487	0.000199768	0.000140931	0.000140931	0	3.91476e-05	43	4.95637e-09	0.000000000000000E+000	839.427	0.000000000000000E+000	280338	0.000000000000000E+000	3.91476e-05	3.91476e-05	0.0000000E+000	0.000000000000000E+000	-1.5272e-08
1	1	0	1	0	0	0	280348	0.0002	-0.0751084	0.000199791	0.000142929	0.000142929	0	3.97025e-05	43	4.99805e-09	0.000000000000000E+000	844.585	0.000000000000000E+000	280348	0.000000000000000E+000	3.97025e-05	3.97025e-05	0.0000000E+000	0.000000000000000E+000	-1.5006e-08
1	1	0	1	0	0	0	280358	0.0002	-0.0736383	0.000199756	0.000144927	0.000144927	0	4.02575e-05	43	5.03892e-09	0.000000000000000E+000	849.015	0.000000000000000E+000	280358	0.000000000000000E+000	4.02575e-05	4.02575e-05	0.0000000E+000	0.000000000000000E+000	-1.47097e-08
1	1	0	1	0	0	0	280368	0.0002	-0.0726302	0.000199791	0.000146925	0.000146925	0	4.08124e-05	43	5.07922e-09	0.000000000000000E+000	855.665	0.000000000000000E+000	280368	0.000000000000000E+000	4.08124e-05	4.08124e-05	0.0000000E+000	0.000000000000000E+000	-1.45109e-08
1	1	0	1	0	0	0	280378	0.0002	-0.0720651	0.000199756	0.000148922	0.000148922	0	4.13674e-05	43	5.11921e-09	0.000000000000000E+000	864.455	0.000000000000000E+000	280378	0.000000000000000E+000	4.13674e-05	4.13674e-05	0.0000000E+000	0.000000000000000E+000	-1.43955e-08
1	1	0	1	0	0	0	280388	0.0002	-0.0708203	0.000199776	0.00015092	0.00015092	0	4.19223e-05	43	5.15851e-09	0.000000000000000E+000	869.767	0.000000000000000E+000	280388	0.000000000000000E+000	4.19223e-05	4.19223e-05	0.0000000E+000	0.000000000000000E+000	-1.41482e-08
1	1	0	1	0	0	0	280398	0.0002	-0.0700184	0.000199787	0.000152918	0.000152918	0	4.24773e-05	43	5.19737e-09	0.000000000000000E+000	877.227	0.000000000000000E+000	280398	0.000000000000000E+000	4.24773e-05	4.24773e-05	0.0000000E+000	0.000000000000000E+000	-1.39888e-08
1	1	0	1	0	0	0	280408	0.0002	-0.068659	0.000199722	0.000154916	0.000154916	0	4.30322e-05	43	5.23547e-09	0.000000000000000E+000	881.81	0.000000000000000E+000	280408	0.000000000000000E+000	4.30322e-05	4.30322e-05	0.0000000E+000	0.000000000000000E+000	-1.37127e-08
1	1	0	1	0	0	0	280418	0.0002	-0.0673875	0.000199783	0.000156914	0.000156914	0	4.35871e-05	43	5.27287e-09	0.000000000000000E+000	886.764	0.000000000000000E+000	280418	0.000000000000000E+000	4.35871e-05	4.35871e-05	0.0000000E+000	0.000000000000000E+000	-1.34629e-08
1	1	0	1	0	0	0	280428	0.0002	-0.0662839	0.000199772	0.000158911	0.000158911	0	4.41421e-05	43	5.30965e-09	0.000000000000000E+000	892.488	0.000000000000000E+000	280428	0.000000000000000E+000	4.41421e-05	4.41421e-05	0.0000000E+000	0.000000000000000E+000	-1.32417e-08
1	1	0	1	0	0	0	280438	0.0002	-0.0655164	0.000199764	0.000160909	0.000160909	0	4.4697e-05	43	5.34601e-09	0.000000000000000E+000	899.829	0.000000000000000E+000	280438	0.000000000000000E+000	4.4697e-05	4.4697e-05	0.0000000E+000	0.000000000000000E+000	-1.30878e-08
1	1	0	1	0	0	0	280448	0.0002	-0.0644358	0.000199772	0.000162907	0.000162907	0	4.52519e-05	43	5.38177e-09	0.000000000000000E+000	905.528	0.000000000000000E+000	280448	0.000000000000000E+000	4.52519e-05	4.52519e-05	0.0000000E+000	0.000000000000000E+000	-1.28725e-08
1	1	0	1	0	0	0	280458	0.0002	-0.0633743	0.000199776	0.000164905	0.000164905	0	4.58069e-05	43	5.41693e-09	0.000000000000000E+000	911.256	0.000000000000000E+000	280458	0.000000000000000E+000	4.58069e-05	4.58069e-05	0.0000000E+000	0.000000000000000E+000	-1.26606e-08
1	1	0	1	0	0	0	280468	0.0002	-0.0623318	0.000199799	0.000166903	0.000166903	0	4.63618e-05	43	5.45153e-09	0.000000000000000E+000	917.014	0.000000000000000E+000	280468	0.000000000000000E+000	4.63618e-05	4.63618e-05	0.0000000E+000	0.000000000000000E+000	-1.24538e-08
1	1	0	1	0	0	0	280478	0.0002	-0.0610068	0.000199764	0.0001689	0.0001689	0	4.69168e-05	43	5.48538e-09	0.000000000000000E+000	921.283	0.000000000000000E+000	280478	0.000000000000000E+000	4.69168e-05	4.69168e-05	0.0000000E+000	0.000000000000000E+000	-1.2187e-08
1	1	0	1	0	0	0	280488	0.0002	-0.0600828	0.000199756	0.000170898	0.000170898	0	4.74717e-05	43	5.51872e-09	0.000000000000000E+000	927.506	0.000000000000000E+000	280488	0.000000000000000E+000	4.74717e-05	4.74717e-05	0.0000000E+000	0.000000000000000E+000	-1.20019e-08
1	1	0	1	0	0	0	280498	0.0002	-0.0590518	0.000199745	0.000172896	0.000172896	0	4.80267e-05	43	5.55149e-09	0.000000000000000E+000	933.127	0.000000000000000E+000	280498	0.000000000000000E+000	4.80267e-05	4.80267e-05	0.0000000E+000	0.000000000000000E+000	-1.17953e-08
1	1	0	1	0	0	0	280508	0.0002	-0.0580475	0.000199741	0.000174894	0.000174894	0	4.85816e-05	43	5.58371e-09	0.000000000000000E+000	938.821	0.000000000000000E+000	280508	0.000000000000000E+000	4.85816e-05	4.85816e-05	0.0000000E+000	0.000000000000000E+000	-1.15945e-08
1	1	0	1	0	0	0	280518	0.0002	-0.056776	0.000199756	0.000176892	0.000176892	0	4.91366e-05	43	5.61522e-09	0.000000000000000E+000	943.108	0.000000000000000E+000	280518	0.000000000000000E+000	4.91366e-05	4.91366e-05	0.0000000E+000	0.000000000000000E+000	-1.13414e-08
1	1	0	1	0	0	0	280528	0.0002	-0.0556839	0.00019981	0.00017889	0.00017889	0	4.96915e-05	43	5.64612e-09	0.000000000000000E+000	948.239	0.000000000000000E+000	280528	0.000000000000000E+000	4.96915e-05	4.96915e-05	0.0000000E+000	0.000000000000000E+000	-1.11262e-08
1	1	0	1	0	0	0	280538	0.0002	-0.0550348	0.000199791	0.000180887	0.000180887	0	5.02465e-05	43	5.67666e-09	0.000000000000000E+000	955.541	0.000000000000000E+000	280538	0.000000000000000E+000	5.02465e-05	5.02465e-05	0.0000000E+000	0.000000000000000E+000	-1.09954e-08
1	1	0	1	0	0	0	280548	0.0002	-0.0538014	0.000199864	0.000182885	0.000182885	0	5.08015e-05	43	5.70652e-09	0.000000000000000E+000	959.842	0.000000000000000E+000	280548	0.000000000000000E+000	5.08015e-05	5.08015e-05	0.0000000E+000	0.000000000000000E+000	-1.07529e-08
1	1	0	1	0	0	0	280558	0.0002	-0.0532821	0.000199779	0.000184883	0.000184883	0	5.13565e-05	43	5.73609e-09	0.000000000000000E+000	967.69	0.000000000000000E+000	280558	0.000000000000000E+000	5.13565e-05	5.13565e-05	0.0000000E+000	0.000000000000000E+000	-1.06447e-08
1	1	0	1	0	0	0	280568	0.0002	-0.0522778	0.000199795	0.000186881	0.000186881	0	5.19114e-05	43	5.7651e-09	0.000000000000000E+000	973.032	0.000000000000000E+000	280568	0.000000000000000E+000	5.19114e-05	5.19114e-05	0.0000000E+000	0.000000000000000E+000	-1.04448e-08
1	1	0	1	0	0	0	280578	0.0002	-0.051285	0.000199791	0.000188879	0.000188879	0	5.24664e-05	43	5.79356e-09	0.000000000000000E+000	978.377	0.000000000000000E+000	280578	0.000000000000000E+000	5.24664e-05	5.24664e-05	0.0000000E+000	0.000000000000000E+000	-1.02463e-08
1	1	0	1	0	0	0	280588	0.0002	-0.050907	0.000199776	0.000190877	0.000190877	0	5.30214e-05	43	5.82182e-09	0.000000000000000E+000	986.794	0.000000000000000E+000	280588	0.000000000000000E+000	5.30214e-05	5.30214e-05	0.0000000E+000	0.000000000000000E+000	-1.017e-08
1	1	0	1	0	0	0	280598	0.0002	-0.049876	0.000199822	0.000192875	0.000192875	0	5.35763e-05	43	5.8495e-09	0.000000000000000E+000	991.836	0.000000000000000E+000	280598	0.000000000000000E+000	5.35763e-05	5.35763e-05	0.0000000E+000	0.000000000000000E+000	-9.9663e-09
1	1	0	1	0	0	0	280608	0.0002	-0.0491925	0.000199779	0.000194873	0.000194873	0	5.41313e-05	43	5.8768e-09	0.000000000000000E+000	998.6	0.000000000000000E+000	280608	0.000000000000000E+000	5.41313e-05	5.41313e-05	0.0000000E+000	0.000000000000000E+000	-9.82766e-09
1	1	0	1	0	0	0	280618	0.0002	-0.0481959	0.000199829	0.000196871	0.000196871	0	5.46863e-05	43	5.90354e-09	0.000000000000000E+000	1003.71	0.000000000000000E+000	280618	0.000000000000000E+000	5.46863e-05	5.46863e-05	0.0000000E+000	0.000000000000000E+000	-9.63095e-09
1	1	0	1	0	0	0	280628	0.0002	-0.0472222	0.000199799	0.000198868	0.000198868	0	5.52412e-05	43	5.92975e-09	0.000000000000000E+000	1008.89	0.000000000000000E+000	280628	0.000000000000000E+000	5.52412e-05	5.52412e-05	0.0000000E+000	0.000000000000000E+000	-9.43493e-09
1	1	0	1	0	0	0	280638	0.0002	-0.0468213	0.000199756	0.000200866	0.000200866	0	5.57961e-05	43	5.95573e-09	0.000000000000000E+000	1016.95	0.000000000000000E+000	280638	0.000000000000000E+000	5.57961e-05	5.57961e-05	0.0000000E+000	0.000000000000000E+000	-9.35285e-09
1	1	0	1	0	0	0	280648	0.0002	-0.0457063	0.000199783	0.000202864	0.000202864	0	5.6351e-05	43	5.98109e-09	0.000000000000000E+000	1021.3	0.000000000000000E+000	280648	0.000000000000000E+000	5.6351e-05	5.6351e-05	0.0000000E+000	0.000000000000000E+000	-9.13135e-09
1	1	0	1	0	0	0	280658	0.0002	-0.0451335	0.00019973	0.000204862	0.000204862	0	5.6906e-05	43	6.00614e-09	0.000000000000000E+000	1028.4	0.000000000000000E+000	280658	0.000000000000000E+000	5.6906e-05	5.6906e-05	0.0000000E+000	0.000000000000000E+000	-9.0145e-09
1	1	0	1	0	0	0	280668	0.0002	-0.0441789	0.000199814	0.000206859	0.000206859	0	5.7461e-05	43	6.03066e-09	0.000000000000000E+000	1033.47	0.000000000000000E+000	280668	0.000000000000000E+000	5.7461e-05	5.7461e-05	0.0000000E+000	0.000000000000000E+000	-8.82755e-09
1	1	0	1	0	0	0	280678	0.0002	-0.0439192	0.000199772	0.000208857	0.000208857	0	5.80159e-05	43	6.05503e-09	0.000000000000000E+000	1042.1	0.000000000000000E+000	280678	0.000000000000000E+000	5.80159e-05	5.80159e-05	0.0000000E+000	0.000000000000000E+000	-8.77382e-09
1	1	0	1	0	0	0	280688	0.0002	-0.0426324	0.000199791	0.000210855	0.000210855	0	5.85709e-05	43	6.07869e-09	0.000000000000000E+000	1045.36	0.000000000000000E+000	280688	0.000000000000000E+000	5.85709e-05	5.85709e-05	0.0000000E+000	0.000000000000000E+000	-8.51757e-09
1	1	0	1	0	0	0	280698	0.0002	-0.0416854	0.000199825	0.000212853	0.000212853	0	5.91259e-05	43	6.10183e-09	0.000000000000000E+000	1050.33	0.000000000000000E+000	280698	0.000000000000000E+000	5.91259e-05	5.91259e-05	0.0000000E+000	0.000000000000000E+000	-8.32981e-09
1	1	0	1	0	0	0	280708	0.0002	-0.0405323	0.000199779	0.000214851	0.000214851	0	5.96809e-05	43	6.12432e-09	0.000000000000000E+000	1054.19	0.000000000000000E+000	280708	0.000000000000000E+000	5.96809e-05	5.96809e-05	0.0000000E+000	0.000000000000000E+000	-8.09751e-09
1	1	0	1	0	0	0	280718	0.0002	-0.040559	0.000199795	0.000216849	0.000216849	0	6.02359e-05	43	6.14683e-09	0.000000000000000E+000	1064.14	0.000000000000000E+000	280718	0.000000000000000E+000	6.02359e-05	6.02359e-05	0.0000000E+000	0.000000000000000E+000	-8.10347e-09
1	1	0	1	0	0	0	280728	0.0002	-0.0401581	0.000199753	0.000218847	0.000218847	0	6.07909e-05	43	6.16912e-09	0.000000000000000E+000	1071.83	0.000000000000000E+000	280728	0.000000000000000E+000	6.07909e-05	6.07909e-05	0.0000000E+000	0.000000000000000E+000	-8.02168e-09
1	1	0	1	0	0	0	280738	0.0002	-0.0392836	0.000199799	0.000220845	0.000220845	0	6.13459e-05	43	6.19092e-09	0.000000000000000E+000	1077.01	0.000000000000000E+000	280738	0.000000000000000E+000	6.13459e-05	6.13459e-05	0.0000000E+000	0.000000000000000E+000	-7.84881e-09
1	1	0	1	0	0	0	280748	0.0002	-0.0384474	0.000199768	0.000222843	0.000222843	0	6.19009e-05	43	6.21226e-09	0.000000000000000E+000	1082.34	0.000000000000000E+000	280748	0.000000000000000E+000	6.19009e-05	6.19009e-05	0.0000000E+000	0.000000000000000E+000	-7.68056e-09
1	1	0	1	0	0	0	280758	0.0002	-0.0371606	0.000199768	0.000224841	0.000224841	0	6.24559e-05	43	6.23288e-09	0.000000000000000E+000	1085.26	0.000000000000000E+000	280758	0.000000000000000E+000	6.24559e-05	6.24559e-05	0.0000000E+000	0.000000000000000E+000	-7.42349e-09
1	1	0	1	0	0	0	280768	0.0002	-0.0360914	0.00019976	0.000226839	0.000226839	0	6.30108e-05	43	6.25291e-09	0.000000000000000E+000	1089.28	0.000000000000000E+000	280768	0.000000000000000E+000	6.30108e-05	6.30108e-05	0.0000000E+000	0.000000000000000E+000	-7.20963e-09
1	1	0	1	0	0	0	280778	0.0002	-0.0365381	0.000199791	0.000228837	0.000228837	0	6.35658e-05	43	6.27319e-09	0.000000000000000E+000	1101.23	0.000000000000000E+000	280778	0.000000000000000E+000	6.35658e-05	6.35658e-05	0.0000000E+000	0.000000000000000E+000	-7.29999e-09
1	1	0	1	0	0	0	280788	0.0002	-0.0352819	0.000199795	0.000230835	0.000230835	0	6.41207e-05	43	6.29277e-09	0.000000000000000E+000	1104.17	0.000000000000000E+000	280788	0.000000000000000E+000	6.41207e-05	6.41207e-05	0.0000000E+000	0.000000000000000E+000	-7.04914e-09
1	1	0	1	0	0	0	280798	0.0002	-0.0343425	0.000199829	0.000232833	0.000232833	0	6.46757e-05	43	6.31183e-09	0.000000000000000E+000	1108.75	0.000000000000000E+000	280798	0.000000000000000E+000	6.46757e-05	6.46757e-05	0.0000000E+000	0.000000000000000E+000	-6.86264e-09
1	1	0	1	0	0	0	280808	0.0002	-0.0334223	0.000199806	0.00023483	0.00023483	0	6.52307e-05	43	6.33038e-09	0.000000000000000E+000	1113.38	0.000000000000000E+000	280808	0.000000000000000E+000	6.52307e-05	6.52307e-05	0.0000000E+000	0.000000000000000E+000	-6.67798e-09
1	1	0	1	0	0	0	280818	0.0002	-0.0324371	0.000199756	0.000236828	0.000236828	0	6.57856e-05	43	6.34838e-09	0.000000000000000E+000	1117.63	0.000000000000000E+000	280818	0.000000000000000E+000	6.57856e-05	6.57856e-05	0.0000000E+000	0.000000000000000E+000	-6.47953e-09
1	1	0	1	0	0	0	280828	0.0002	-0.0317842	0.000199795	0.000238826	0.000238826	0	6.63406e-05	43	6.36602e-09	0.000000000000000E+000	1123.6	0.000000000000000E+000	280828	0.000000000000000E+000	6.63406e-05	6.63406e-05	0.0000000E+000	0.000000000000000E+000	-6.35031e-09
1	1	0	1	0	0	0	280838	0.0002	-0.0310625	0.000199802	0.000240824	0.000240824	0	6.68956e-05	43	6.38326e-09	0.000000000000000E+000	1129.17	0.000000000000000E+000	280838	0.000000000000000E+000	6.68956e-05	6.68956e-05	0.0000000E+000	0.000000000000000E+000	-6.20636e-09
1	1	0	1	0	0	0	280848	0.0002	-0.0305126	0.000199776	0.000242822	0.000242822	0	6.74506e-05	43	6.40019e-09	0.000000000000000E+000	1135.61	0.000000000000000E+000	280848	0.000000000000000E+000	6.74506e-05	6.74506e-05	0.0000000E+000	0.000000000000000E+000	-6.09568e-09
1	1	0	1	0	0	0	280858	0.0002	-0.0297948	0.000199768	0.00024482	0.00024482	0	6.80055e-05	43	6.41673e-09	0.000000000000000E+000	1141.12	0.000000000000000E+000	280858	0.000000000000000E+000	6.80055e-05	6.80055e-05	0.0000000E+000	0.000000000000000E+000	-5.95204e-09
1	1	0	1	0	0	0	280868	0.0002	-0.0286683	0.000199787	0.000246818	0.000246818	0	6.85605e-05	43	6.43264e-09	0.000000000000000E+000	1144.42	0.000000000000000E+000	280868	0.000000000000000E+000	6.85605e-05	6.85605e-05	0.0000000E+000	0.000000000000000E+000	-5.72756e-09
1	1	0	1	0	0	0	280878	0.0002	-0.0279581	0.00019981	0.000248816	0.000248816	0	6.91155e-05	43	6.44815e-09	0.000000000000000E+000	1149.9	0.000000000000000E+000	280878	0.000000000000000E+000	6.91155e-05	6.91155e-05	0.0000000E+000	0.000000000000000E+000	-5.58631e-09
1	1	0	1	0	0	0	280888	0.0002	-0.0276984	0.000199799	0.000250814	0.000250814	0	6.96705e-05	43	6.46353e-09	0.000000000000000E+000	1157.74	0.000000000000000E+000	280888	0.000000000000000E+000	6.96705e-05	6.96705e-05	0.0000000E+000	0.000000000000000E+000	-5.53411e-09
1	1	0	1	0	0	0	280898	0.0002	-0.0271027	0.000199779	0.000252812	0.000252812	0	7.02255e-05	43	6.47857e-09	0.000000000000000E+000	1163.77	0.000000000000000E+000	280898	0.000000000000000E+000	7.02255e-05	7.02255e-05	0.0000000E+000	0.000000000000000E+000	-5.41457e-09
1	1	0	1	0	0	0	280908	0.0002	-0.0259801	0.00019976	0.00025481	0.00025481	0	7.07804e-05	43	6.49299e-09	0.000000000000000E+000	1166.93	0.000000000000000E+000	280908	0.000000000000000E+000	7.07804e-05	7.07804e-05	0.0000000E+000	0.000000000000000E+000	-5.1898e-09
1	1	0	1	0	0	0	280918	0.0002	-0.0248346	0.00019976	0.000256807	0.000256807	0	7.13354e-05	43	6.50677e-09	0.000000000000000E+000	1169.95	0.000000000000000E+000	280918	0.000000000000000E+000	7.13354e-05	7.13354e-05	0.0000000E+000	0.000000000000000E+000	-4.96096e-09
1	1	0	1	0	0	0	280928	0.0002	-0.0242389	0.000199814	0.000258805	0.000258805	0	7.18903e-05	43	6.52022e-09	0.000000000000000E+000	1175.86	0.000000000000000E+000	280928	0.000000000000000E+000	7.18903e-05	7.18903e-05	0.0000000E+000	0.000000000000000E+000	-4.84327e-09
1	1	0	1	0	0	0	280938	0.0002	-0.0239258	0.000199806	0.000260803	0.000260803	0	7.24453e-05	43	6.5335e-09	0.000000000000000E+000	1183.25	0.000000000000000E+000	280938	0.000000000000000E+000	7.24453e-05	7.24453e-05	0.0000000E+000	0.000000000000000E+000	-4.78052e-09
1	1	0	1	0	0	0	280948	0.0002	-0.0229903	0.000199791	0.000262801	0.000262801	0	7.30002e-05	43	6.54626e-09	0.000000000000000E+000	1187.27	0.000000000000000E+000	280948	0.000000000000000E+000	7.30002e-05	7.30002e-05	0.0000000E+000	0.000000000000000E+000	-4.59325e-09
1	1	0	1	0	0	0	280958	0.0002	-0.022448	0.000199802	0.000264799	0.000264799	0	7.35552e-05	43	6.55871e-09	0.000000000000000E+000	1193.38	0.000000000000000E+000	280958	0.000000000000000E+000	7.35552e-05	7.35552e-05	0.0000000E+000	0.000000000000000E+000	-4.48517e-09
1	1	0	1	0	0	0	280968	0.0002	-0.0216614	0.000199783	0.000266797	0.000266797	0	7.41101e-05	43	6.57073e-09	0.000000000000000E+000	1198.13	0.000000000000000E+000	280968	0.000000000000000E+000	7.41101e-05	7.41101e-05	0.0000000E+000	0.000000000000000E+000	-4.32759e-09
1	1	0	1	0	0	0	280978	0.0002	-0.0206686	0.000199841	0.000268794	0.000268794	0	7.46651e-05	43	6.58221e-09	0.000000000000000E+000	1201.75	0.000000000000000E+000	280978	0.000000000000000E+000	7.46651e-05	7.46651e-05	0.0000000E+000	0.000000000000000E+000	-4.13043e-09
1	1	0	1	0	0	0	280988	0.0002	-0.0194811	0.000199764	0.000270792	0.000270792	0	7.52201e-05	43	6.59302e-09	0.000000000000000E+000	1204.29	0.000000000000000E+000	280988	0.000000000000000E+000	7.52201e-05	7.52201e-05	0.0000000E+000	0.000000000000000E+000	-3.89163e-09
1	1	0	1	0	0	0	280998	0.0002	-0.0187747	0.000199806	0.00027279	0.00027279	0	7.57751e-05	43	6.60344e-09	0.000000000000000E+000	1209.37	0.000000000000000E+000	280998	0.000000000000000E+000	7.57751e-05	7.57751e-05	0.0000000E+000	0.000000000000000E+000	-3.7513e-09
1	1	0	1	0	0	0	281008	0.0002	-0.0184043	0.000199787	0.000274788	0.000274788	0	7.63301e-05	43	6.61365e-09	0.000000000000000E+000	1216.23	0.000000000000000E+000	281008	0.000000000000000E+000	7.63301e-05	7.63301e-05	0.0000000E+000	0.000000000000000E+000	-3.67694e-09
1	1	0	1	0	0	0	281018	0.0002	-0.0178353	0.000199814	0.000276786	0.000276786	0	7.68851e-05	43	6.62355e-09	0.000000000000000E+000	1222	0.000000000000000E+000	281018	0.000000000000000E+000	7.68851e-05	7.68851e-05	0.0000000E+000	0.000000000000000E+000	-3.56375e-09
1	1	0	1	0	0	0	281028	0.0002	-0.0173771	0.000199764	0.000278784	0.000278784	0	7.74401e-05	43	6.63319e-09	0.000000000000000E+000	1228.33	0.000000000000000E+000	281028	0.000000000000000E+000	7.74401e-05	7.74401e-05	0.0000000E+000	0.000000000000000E+000	-3.47133e-09
1	1	0	1	0	0	0	281038	0.0002	-0.0170793	0.00019981	0.000280782	0.000280782	0	7.79951e-05	43	6.64267e-09	0.000000000000000E+000	1235.52	0.000000000000000E+000	281038	0.000000000000000E+000	7.79951e-05	7.79951e-05	0.0000000E+000	0.000000000000000E+000	-3.41261e-09
1	1	0	1	0	0	0	281048	0.0002	-0.0160674	0.000199776	0.00028278	0.00028278	0	7.855e-05	43	6.65159e-09	0.000000000000000E+000	1238.79	0.000000000000000E+000	281048	0.000000000000000E+000	7.855e-05	7.855e-05	0.0000000E+000	0.000000000000000E+000	-3.20988e-09
1	1	0	1	0	0	0	281058	0.0002	-0.015697	0.000199787	0.000284778	0.000284778	0	7.9105e-05	43	6.6603e-09	0.000000000000000E+000	1245.52	0.000000000000000E+000	281058	0.000000000000000E+000	7.9105e-05	7.9105e-05	0.0000000E+000	0.000000000000000E+000	-3.13606e-09
1	1	0	1	0	0	0	281068	0.0002	-0.0152273	0.000199779	0.000286776	0.000286776	0	7.966e-05	43	6.66875e-09	0.000000000000000E+000	1251.69	0.000000000000000E+000	281068	0.000000000000000E+000	7.966e-05	7.966e-05	0.0000000E+000	0.000000000000000E+000	-3.04211e-09
1	1	0	1	0	0	0	281078	0.0002	-0.0147653	0.000199779	0.000288774	0.000288774	0	8.0215e-05	43	6.67695e-09	0.000000000000000E+000	1257.87	0.000000000000000E+000	281078	0.000000000000000E+000	8.0215e-05	8.0215e-05	0.0000000E+000	0.000000000000000E+000	-2.9498e-09
1	1	0	1	0	0	0	281088	0.0002	-0.0138947	0.000199787	0.000290772	0.000290772	0	8.077e-05	43	6.68466e-09	0.000000000000000E+000	1261.79	0.000000000000000E+000	281088	0.000000000000000E+000	8.077e-05	8.077e-05	0.0000000E+000	0.000000000000000E+000	-2.77598e-09
1	1	0	1	0	0	0	281098	0.0002	-0.0130088	0.000199787	0.00029277	0.00029277	0	8.13249e-05	43	6.69188e-09	0.000000000000000E+000	1265.6	0.000000000000000E+000	281098	0.000000000000000E+000	8.13249e-05	8.13249e-05	0.0000000E+000	0.000000000000000E+000	-2.59899e-09
1	1	0	1	0	0	0	281108	0.0002	-0.012142	0.000199772	0.000294768	0.000294768	0	8.18799e-05	43	6.69862e-09	0.000000000000000E+000	1269.48	0.000000000000000E+000	281108	0.000000000000000E+000	8.18799e-05	8.18799e-05	0.0000000E+000	0.000000000000000E+000	-2.42563e-09
1	1	0	1	0	0	0	281118	0.0002	-0.0112409	0.000199772	0.000296765	0.000296765	0	8.24348e-05	43	6.70485e-09	0.000000000000000E+000	1273.14	0.000000000000000E+000	281118	0.000000000000000E+000	8.24348e-05	8.24348e-05	0.0000000E+000	0.000000000000000E+000	-2.24561e-09
1	1	0	1	0	0	0	281128	0.0002	-0.0113669	0.00019976	0.000298763	0.000298763	0	8.29898e-05	43	6.71116e-09	0.000000000000000E+000	1282.4	0.000000000000000E+000	281128	0.000000000000000E+000	8.29898e-05	8.29898e-05	0.0000000E+000	0.000000000000000E+000	-2.27065e-09
1	1	0	1	0	0	0	281138	0.0002	-0.00997696	0.000199779	0.000300761	0.000300761	0	8.35447e-05	43	6.7167e-09	0.000000000000000E+000	1283.32	0.000000000000000E+000	281138	0.000000000000000E+000	8.35447e-05	8.35447e-05	0.0000000E+000	0.000000000000000E+000	-1.99319e-09
1	1	0	1	0	0	0	281148	0.0002	-0.00951111	0.000199795	0.000302759	0.000302759	0	8.40996e-05	43	6.72198e-09	0.000000000000000E+000	1289.28	0.000000000000000E+000	281148	0.000000000000000E+000	8.40996e-05	8.40996e-05	0.0000000E+000	0.000000000000000E+000	-1.90027e-09
1	1	0	1	0	0	0	281158	0.0002	-0.00851449	0.000199802	0.000304756	0.000304756	0	8.46546e-05	43	6.7267e-09	0.000000000000000E+000	1292.3	0.000000000000000E+000	281158	0.000000000000000E+000	8.46546e-05	8.46546e-05	0.0000000E+000	0.000000000000000E+000	-1.70122e-09
1	1	0	1	0	0	0	281168	0.0002	-0.00813647	0.000199753	0.000306754	0.000306754	0	8.52095e-05	43	6.73122e-09	0.000000000000000E+000	1298.69	0.000000000000000E+000	281168	0.000000000000000E+000	8.52095e-05	8.52095e-05	0.0000000E+000	0.000000000000000E+000	-1.62528e-09
1	1	0	1	0	0	0	281178	0.0002	-0.00752169	0.000199772	0.000308752	0.000308752	0	8.57645e-05	43	6.73539e-09	0.000000000000000E+000	1303.76	0.000000000000000E+000	281178	0.000000000000000E+000	8.57645e-05	8.57645e-05	0.0000000E+000	0.000000000000000E+000	-1.50262e-09
1	1	0	1	0	0	0	281188	0.0002	-0.00718185	0.000199764	0.00031075	0.00031075	0	8.63194e-05	43	6.73938e-09	0.000000000000000E+000	1310.32	0.000000000000000E+000	281188	0.000000000000000E+000	8.63194e-05	8.63194e-05	0.0000000E+000	0.000000000000000E+000	-1.43468e-09
1	1	0	1	0	0	0	281198	0.0002	-0.0063227	0.000199814	0.000312748	0.000312748	0	8.68744e-05	43	6.74288e-09	0.000000000000000E+000	1313.98	0.000000000000000E+000	281198	0.000000000000000E+000	8.68744e-05	8.68744e-05	0.0000000E+000	0.000000000000000E+000	-1.26336e-09
1	1	0	1	0	0	0	281208	0.0002	-0.00581866	0.000199756	0.000314746	0.000314746	0	8.74294e-05	43	6.74611e-09	0.000000000000000E+000	1319.58	0.000000000000000E+000	281208	0.000000000000000E+000	8.74294e-05	8.74294e-05	0.0000000E+000	0.000000000000000E+000	-1.16232e-09
1	1	0	1	0	0	0	281218	0.0002	-0.0051848	0.000199783	0.000316743	0.000316743	0	8.79843e-05	43	6.74899e-09	0.000000000000000E+000	1324.44	0.000000000000000E+000	281218	0.000000000000000E+000	8.79843e-05	8.79843e-05	0.0000000E+000	0.000000000000000E+000	-1.03584e-09
1	1	0	1	0	0	0	281228	0.0002	-0.0050817	0.000199764	0.000318741	0.000318741	0	8.85392e-05	43	6.75181e-09	0.000000000000000E+000	1332.21	0.000000000000000E+000	281228	0.000000000000000E+000	8.85392e-05	8.85392e-05	0.0000000E+000	0.000000000000000E+000	-1.01514e-09
1	1	0	1	0	0	0	281238	0.0002	-0.00390943	0.000199772	0.000320739	0.000320739	0	8.90942e-05	43	6.75398e-09	0.000000000000000E+000	1334.03	0.000000000000000E+000	281238	0.000000000000000E+000	8.90942e-05	8.90942e-05	0.0000000E+000	0.000000000000000E+000	-7.80994e-10
1	1	0	1	0	0	0	281248	0.0002	-0.0041309	0.000199749	0.000322737	0.000322737	0	8.96491e-05	43	6.75627e-09	0.000000000000000E+000	1343.58	0.000000000000000E+000	281248	0.000000000000000E+000	8.96491e-05	8.96491e-05	0.0000000E+000	0.000000000000000E+000	-8.25143e-10
1	1	0	1	0	0	0	281258	0.0002	-0.00342067	0.000199776	0.000324735	0.000324735	0	9.02041e-05	43	6.75817e-09	0.000000000000000E+000	1347.91	0.000000000000000E+000	281258	0.000000000000000E+000	9.02041e-05	9.02041e-05	0.0000000E+000	0.000000000000000E+000	-6.83366e-10
1	1	0	1	0	0	0	281268	0.0002	-0.00254242	0.000199787	0.000326733	0.000326733	0	9.07591e-05	43	6.75958e-09	0.000000000000000E+000	1351.27	0.000000000000000E+000	281268	0.000000000000000E+000	9.07591e-05	9.07591e-05	0.0000000E+000	0.000000000000000E+000	-5.07944e-10
1	1	0	1	0	0	0	281278	0.0002	-0.00149235	0.000199772	0.000328731	0.000328731	0	9.13141e-05	43	6.76041e-09	0.000000000000000E+000	1353.66	0.000000000000000E+000	281278	0.000000000000000E+000	9.13141e-05	9.13141e-05	0.0000000E+000	0.000000000000000E+000	-2.98129e-10
1	1	0	1	0	0	0	281288	0.0002	-0.00227131	0.000199806	0.000330728	0.000330728	0	9.1869e-05	43	6.76167e-09	0.000000000000000E+000	1366.27	0.000000000000000E+000	281288	0.000000000000000E+000	9.1869e-05	9.1869e-05	0.0000000E+000	0.000000000000000E+000	-4.53823e-10
1	1	0	1	0	0	0	281298	0.0002	-0.00119069	0.00019976	0.000332726	0.000332726	0	9.2424e-05	43	6.76233e-09	0.000000000000000E+000	1368.41	0.000000000000000E+000	281298	0.000000000000000E+000	9.2424e-05	9.2424e-05	0.0000000E+000	0.000000000000000E+000	-2.37853e-10
1	1	0	1	0	0	0	281306	0.0002	4.48674e-06	0.000199787	0.000334163	0.000334163	0	9.2823e-05	43	6.76233e-09	0.000000000000000E+000	1367.6	0.000000000000000E+000	281306	0.000000000000000E+000	9.2823e-05	9.2823e-05	0.0000000E+000	0.000000000000000E+000	8.96394e-13
1	1	0	1	0	0	0	281306	0.0002	-2.60607e-05	0.000199787	0.000334163	0.000334163	0	9.2823e-05	43	6.76233e-09	0.000000000000000E+000	1367.77	0.000000000000000E+000	281306	0.000000000000000E+000	9.2823e-05	9.2823e-05	0.0000000E+000	0.000000000000000E+000	-5.2066e-12