File: data_dir/600_B_immertest4/600_B_05_OCV_C03.mpt
EC-Lab ASCII FILE
Nb header lines : 48

Open Circuit Voltage

Run on channel : 3 (SN 13150)
User :
Electrode connection : standard
Potential control : Ewe
Ewe ctrl range : min = -1.00 V, max = 1.00 V
Ewe,I filtering : 5 Hz
Safety Limits :
	Do not start on E overload
Channel : Floating
Acquisition started on : 07/01/2024 16:51:05.709
Loaded Setting File :  C:\Users\mAtsuhitA\Desktop\Oyafuso\20240624_???????4\1540_A.mps
Saved on :
	File : 600_B_05_OCV_C03.mpr
	Directory : C:\Users\mAtsuhitA\Desktop\Oyafuso\20240624_???????4\600_B\
	Host : 192.109.209.100
Device : VSP-300 (SN 0834)
Address : 192.109.209.128
EC-Lab for windows v11.50 (software)
Internet server v11.50 (firmware)
Command interpretor v11.50 (firmware)
Electrode material :
Initial state :
Electrolyte :
Comments :
Cable : standard
Electrode surface area : 0.001 cm2
Characteristic mass : 0.001 g
Equivalent Weight : 0.000 g/eq.
Density : 0.000 g/cm3
Volume (V) : 0.001 cm3
Text export
   Mode : Standard
   Time format : Elapsed
Cycle Definition : Charge/Discharge alternance
tR (h:m:s)          5:00:0.0000
dER/dt (mV/h)       0.0
record              Ewe
dER (mV)            10.00
dtR (s)             30.0000
E range min (V)     -1.000
E range max (V)     1.000

mode	error	time/s	Ewe/V
3	0	236503	-0.00150297
3	0	236503	-0.0115188
3	0	236504	-0.0215861
3	0	236504	-0.0316534
3	0	236504	-0.0416587
3	0	236505	-0.0516631
3	0	236505	-0.0616827
3	0	236506	-0.0716947
3	0	236506	-0.0817029
3	0	236507	-0.091711
3	0	236508	-0.101727
3	0	236509	-0.111731
3	0	236510	-0.121743
3	0	236512	-0.131759
3	0	236515	-0.141775
3	0	236519	-0.151775
3	0	236525	-0.161776
3	0	236541	-0.171776
3	0	236571	-0.180666
3	0	236601	-0.185279
3	0	236631	-0.189059
3	0	236661	-0.191907
3	0	236691	-0.194046
3	0	236721	-0.195726
3	0	236751	-0.197616
3	0	236781	-0.199033
3	0	236811	-0.201079
3	0	236841	-0.202019
3	0	236871	-0.203485
3	0	236901	-0.204508
3	0	236931	-0.205612
3	0	236961	-0.20662
3	0	236991	-0.207307
3	0	237021	-0.208483
3	0	237051	-0.209125
3	0	237081	-0.210106
3	0	237111	-0.211034
3	0	237141	-0.211542
3	0	237171	-0.212306
3	0	237201	-0.213149
3	0	237231	-0.21407
3	0	237261	-0.214612
3	0	237291	-0.215391
3	0	237321	-0.215929
3	0	237351	-0.216475
3	0	237381	-0.217235
3	0	237411	-0.217892
3	0	237441	-0.218568
3	0	237471	-0.219213
3	0	237501	-0.219965
3	0	237531	-0.22045
3	0	237561	-0.221084
3	0	237591	-0.221668
3	0	237621	-0.222226
3	0	237651	-0.222417
3	0	237681	-0.222673
3	0	237711	-0.223039
3	0	237741	-0.223536
3	0	237771	-0.223956
3	0	237801	-0.224509
3	0	237831	-0.22491
3	0	237861	-0.225113
3	0	237891	-0.225155
3	0	237921	-0.225357
3	0	237951	-0.225338
3	0	237981	-0.225185
3	0	238011	-0.225376
3	0	238041	-0.225747
3	0	238071	-0.226002
3	0	238101	-0.226533
3	0	238131	-0.226518
3	0	238161	-0.22672
3	0	238191	-0.226953
3	0	238221	-0.227285
3	0	238251	-0.227469
3	0	238281	-0.227828
3	0	238311	-0.227935
3	0	238341	-0.22819
3	0	238371	-0.228225
3	0	238401	-0.228969
3	0	238431	-0.229225
3	0	238461	-0.22934
3	0	238491	-0.229267
3	0	238521	-0.229508
3	0	238551	-0.229561
3	0	238581	-0.229935
3	0	238611	-0.230397
3	0	238641	-0.23052
3	0	238671	-0.230913
3	0	238701	-0.23118
3	0	238731	-0.231329
3	0	238761	-0.23149
3	0	238791	-0.231722
3	0	238821	-0.232032
3	0	238851	-0.232108
3	0	238881	-0.232414
3	0	238911	-0.231833
3	0	238941	-0.231955
3	0	238971	-0.232116
3	0	239001	-0.232162
3	0	239031	-0.232433
3	0	239061	-0.232482
3	0	239091	-0.23265
3	0	239121	-0.232853
3	0	239151	-0.233044
3	0	239181	-0.233166
3	0	239211	-0.233311
3	0	239241	-0.233311
3	0	239271	-0.233559
3	0	239301	-0.233624
3	0	239331	-0.233719
3	0	239361	-0.234052
3	0	239391	-0.234155
3	0	239421	-0.234285
3	0	239451	-0.234296
3	0	239481	-0.23443
3	0	239511	-0.234411
3	0	239541	-0.234724
3	0	239571	-0.234892
3	0	239601	-0.234987
3	0	239631	-0.234995
3	0	239661	-0.2353
3	0	239691	-0.235274
3	0	239721	-0.235445
3	0	239751	-0.235591
3	0	239781	-0.235598
3	0	239811	-0.235736
3	0	239841	-0.235816
3	0	239871	-0.235988
3	0	239901	-0.235972
3	0	239931	-0.235892
3	0	239961	-0.2359
3	0	239991	-0.235946
3	0	240021	-0.236033
3	0	240051	-0.236213
3	0	240081	-0.236305
3	0	240111	-0.236648
3	0	240141	-0.236614
3	0	240171	-0.236851
3	0	240201	-0.236942
3	0	240231	-0.236984
3	0	240261	-0.23703
3	0	240291	-0.237282
3	0	240321	-0.237336
3	0	240351	-0.237408
3	0	240381	-0.237439
3	0	240411	-0.237504
3	0	240441	-0.237202
3	0	240471	-0.237301
3	0	240501	-0.237511
3	0	240531	-0.237649
3	0	240561	-0.237866
3	0	240591	-0.237908
3	0	240621	-0.238229
3	0	240651	-0.238183
3	0	240681	-0.238409
3	0	240711	-0.238638
3	0	240741	-0.238664
3	0	240771	-0.238714
3	0	240801	-0.238806
3	0	240831	-0.23879
3	0	240861	-0.239031
3	0	240891	-0.23881
3	0	240921	-0.239042
3	0	240951	-0.238874
3	0	240981	-0.239042
3	0	241011	-0.239115
3	0	241041	-0.239077
3	0	241071	-0.239203
3	0	241101	-0.239417
3	0	241131	-0.239333
3	0	241161	-0.23934
3	0	241191	-0.239443
3	0	241221	-0.239535
3	0	241251	-0.239783
3	0	241281	-0.23984
3	0	241311	-0.239909
3	0	241341	-0.23965
3	0	241371	-0.239661
3	0	241401	-0.239791
3	0	241431	-0.23965
3	0	241461	-0.239684
3	0	241491	-0.239944
3	0	241521	-0.240008
3	0	241551	-0.240047
3	0	241581	-0.240108
3	0	241611	-0.240192
3	0	241641	-0.240535
3	0	241671	-0.240421
3	0	241701	-0.240608
3	0	241731	-0.24065
3	0	241761	-0.24094
3	0	241791	-0.240894
3	0	241821	-0.240936
3	0	241851	-0.241043
3	0	241881	-0.241093
3	0	241911	-0.241334
3	0	241941	-0.241314
3	0	241971	-0.241349
3	0	242001	-0.241395
3	0	242031	-0.241734
3	0	242061	-0.241666
3	0	242091	-0.241883
3	0	242121	-0.241841
3	0	242151	-0.241971
3	0	242181	-0.242055
3	0	242211	-0.242464
3	0	242241	-0.242746
3	0	242271	-0.242536
3	0	242301	-0.24233
3	0	242331	-0.242403
3	0	242361	-0.242406
3	0	242391	-0.242475
3	0	242421	-0.242437
3	0	242451	-0.242769
3	0	242481	-0.242704
3	0	242511	-0.242597
3	0	242541	-0.242903
3	0	242571	-0.242968
3	0	242601	-0.243663
3	0	242631	-0.243357
3	0	242661	-0.24359
3	0	242691	-0.243689
3	0	242721	-0.243575
3	0	242751	-0.24372
3	0	242781	-0.243724
3	0	242811	-0.243693
3	0	242841	-0.243663
3	0	242871	-0.243999
3	0	242901	-0.244159
3	0	242931	-0.244224
3	0	242961	-0.244308
3	0	242991	-0.244369
3	0	243021	-0.244312
3	0	243051	-0.244468
3	0	243081	-0.244873
3	0	243111	-0.245182
3	0	243141	-0.245121
3	0	243171	-0.244747
3	0	243201	-0.244751
3	0	243231	-0.245121
3	0	243261	-0.245053
3	0	243291	-0.244797
3	0	243321	-0.24456
3	0	243351	-0.244358
3	0	243381	-0.244331
3	0	243411	-0.24453
3	0	243441	-0.244411
3	0	243471	-0.244537
3	0	243501	-0.244346
3	0	243531	-0.244396
3	0	243561	-0.24461
3	0	243591	-0.244247
3	0	243621	-0.244556
3	0	243651	-0.244251
3	0	243681	-0.244533
3	0	243711	-0.244564
3	0	243741	-0.24469
3	0	243771	-0.244468
3	0	243801	-0.244552
3	0	243831	-0.244392
3	0	243861	-0.244808
3	0	243891	-0.244797
3	0	243921	-0.244812
3	0	243951	-0.24503
3	0	243981	-0.245014
3	0	244011	-0.244591
3	0	244041	-0.244446
3	0	244071	-0.24448
3	0	244101	-0.244598
3	0	244131	-0.244621
3	0	244161	-0.24443
3	0	244191	-0.244358
3	0	244221	-0.244484
3	0	244251	-0.24427
3	0	244281	-0.244686
3	0	244311	-0.244281
3	0	244341	-0.244373
3	0	244371	-0.244671
3	0	244401	-0.244449
3	0	244431	-0.24456
3	0	244461	-0.244518
3	0	244491	-0.244969
3	0	244521	-0.2449
3	0	244551	-0.244342
3	0	244581	-0.244564
3	0	244611	-0.244701
3	0	244641	-0.245018
3	0	244671	-0.244911
3	0	244701	-0.244682
3	0	244731	-0.24485
3	0	244761	-0.244827
3	0	244791	-0.245209
3	0	244821	-0.245186
3	0	244851	-0.245098
3	0	244881	-0.24527
3	0	244911	-0.244969
3	0	244941	-0.244911
3	0	244971	-0.245213
3	0	245001	-0.245251
3	0	245031	-0.245156
3	0	245061	-0.245625
3	0	245091	-0.245599
3	0	245121	-0.245461
3	0	245151	-0.245324
3	0	245181	-0.245213
3	0	245211	-0.245091
3	0	245241	-0.245098
3	0	245271	-0.245014
3	0	245301	-0.245095
3	0	245331	-0.245068
3	0	245361	-0.245182
3	0	245391	-0.244839
3	0	245421	-0.244724
3	0	245451	-0.244705
3	0	245481	-0.244782
3	0	245511	-0.244911
3	0	245541	-0.244904
3	0	245571	-0.244808
3	0	245601	-0.24477
3	0	245631	-0.244934
3	0	245661	-0.244969
3	0	245691	-0.24498
3	0	245721	-0.245045
3	0	245751	-0.244885
3	0	245781	-0.244846
3	0	245811	-0.245057
3	0	245841	-0.244995
3	0	245871	-0.245014
3	0	245901	-0.244995
3	0	245931	-0.24474
3	0	245961	-0.244793
3	0	245991	-0.244816
3	0	246021	-0.244915
3	0	246051	-0.244827
3	0	246081	-0.244713
3	0	246111	-0.244335
3	0	246141	-0.24448
3	0	246171	-0.244388
3	0	246201	-0.244236
3	0	246231	-0.244491
3	0	246261	-0.24443
3	0	246291	-0.244541
3	0	246321	-0.244476
3	0	246351	-0.244617
3	0	246381	-0.244468
3	0	246411	-0.244518
3	0	246441	-0.244541
3	0	246471	-0.244461
3	0	246501	-0.244503
3	0	246531	-0.244465
3	0	246561	-0.244648
3	0	246591	-0.244728
3	0	246621	-0.244824
3	0	246651	-0.244877
3	0	246681	-0.244827
3	0	246711	-0.244816
3	0	246741	-0.245034
3	0	246771	-0.244953
3	0	246801	-0.244957
3	0	246831	-0.244934
3	0	246861	-0.244927
3	0	246891	-0.24516
3	0	246921	-0.245114
3	0	246951	-0.24537
3	0	246981	-0.245438
3	0	247011	-0.245545
3	0	247041	-0.24566
3	0	247071	-0.245675
3	0	247101	-0.24548
3	0	247131	-0.245828
3	0	247161	-0.245519
3	0	247191	-0.245698
3	0	247221	-0.245698
3	0	247251	-0.245717
3	0	247281	-0.245847
3	0	247311	-0.245839
3	0	247341	-0.245885
3	0	247371	-0.245897
3	0	247401	-0.245961
3	0	247431	-0.246103
3	0	247461	-0.246065
3	0	247491	-0.24608
3	0	247521	-0.246229
3	0	247551	-0.246286
3	0	247581	-0.246435
3	0	247611	-0.24637
3	0	247641	-0.246576
3	0	247671	-0.246423
3	0	247701	-0.246473
3	0	247731	-0.246485
3	0	247761	-0.246473
3	0	247791	-0.246565
3	0	247821	-0.24629
3	0	247851	-0.246084
3	0	247881	-0.24637
3	0	247911	-0.246431
3	0	247941	-0.246324
3	0	247971	-0.246393
3	0	248001	-0.246546
3	0	248031	-0.246607
3	0	248061	-0.246794
3	0	248091	-0.246504
3	0	248121	-0.246378
3	0	248151	-0.246301
3	0	248181	-0.246221
3	0	248211	-0.246297
3	0	248241	-0.246145
3	0	248271	-0.246637
3	0	248301	-0.246477
3	0	248331	-0.246206
3	0	248361	-0.246389
3	0	248391	-0.246175
3	0	248421	-0.246198
3	0	248451	-0.246339
3	0	248481	-0.246313
3	0	248511	-0.24642
3	0	248541	-0.246435
3	0	248571	-0.246481
3	0	248601	-0.246416
3	0	248631	-0.246439
3	0	248661	-0.246527
3	0	248691	-0.246565
3	0	248721	-0.246553
3	0	248751	-0.246523
3	0	248781	-0.246511
3	0	248811	-0.246679
3	0	248841	-0.24666
3	0	248871	-0.247008
3	0	248901	-0.246973
3	0	248931	-0.247012
3	0	248961	-0.24674
3	0	248991	-0.246802
3	0	249021	-0.24684
3	0	249051	-0.246794
3	0	249081	-0.246908
3	0	249111	-0.246981
3	0	249141	-0.246996
3	0	249171	-0.246966
3	0	249201	-0.24708
3	0	249231	-0.247015
3	0	249261	-0.246996
3	0	249291	-0.24718
3	0	249321	-0.246981
3	0	249351	-0.247027
3	0	249381	-0.247111
3	0	249411	-0.246973
3	0	249441	-0.24692
3	0	249471	-0.246897
3	0	249501	-0.246916
3	0	249531	-0.246901
3	0	249561	-0.246966
3	0	249591	-0.246855
3	0	249621	-0.247103
3	0	249651	-0.24708
3	0	249681	-0.247126
3	0	249711	-0.247256
3	0	249741	-0.247191
3	0	249771	-0.247294
3	0	249801	-0.247798
3	0	249831	-0.247886
3	0	249861	-0.247733
3	0	249891	-0.247882
3	0	249921	-0.247546
3	0	249951	-0.247886
3	0	249981	-0.247577
3	0	250011	-0.247573
3	0	250041	-0.247584
3	0	250071	-0.247653
3	0	250101	-0.247558
3	0	250131	-0.247462
3	0	250161	-0.24747
3	0	250191	-0.24763
3	0	250221	-0.247607
3	0	250251	-0.247676
3	0	250281	-0.247619
3	0	250311	-0.247699
3	0	250341	-0.247737
3	0	250371	-0.24784
3	0	250401	-0.247768
3	0	250431	-0.247836
3	0	250461	-0.24771
3	0	250491	-0.247859
3	0	250521	-0.24776
3	0	250551	-0.247867
3	0	250581	-0.248043
3	0	250611	-0.248046
3	0	250641	-0.248359
3	0	250671	-0.24834
3	0	250701	-0.248363
3	0	250731	-0.248272
3	0	250761	-0.248676
3	0	250791	-0.249646
3	0	250821	-0.249417
3	0	250851	-0.249238
3	0	250881	-0.248844
3	0	250911	-0.249135
3	0	250941	-0.249016
3	0	250971	-0.248272
3	0	251001	-0.248268
3	0	251031	-0.248608
3	0	251061	-0.2486
3	0	251091	-0.249261
3	0	251121	-0.248951
3	0	251151	-0.248337
3	0	251181	-0.248482
3	0	251211	-0.248512
3	0	251241	-0.248657
3	0	251271	-0.248474
3	0	251301	-0.248344
3	0	251331	-0.248382
3	0	251361	-0.248413
3	0	251391	-0.248352
3	0	251421	-0.248191
3	0	251451	-0.248008
3	0	251481	-0.247871
3	0	251511	-0.247706
3	0	251541	-0.247691
3	0	251571	-0.247771
3	0	251601	-0.247852
3	0	251631	-0.247649
3	0	251661	-0.247756
3	0	251691	-0.247836
3	0	251721	-0.248069
3	0	251751	-0.247993
3	0	251781	-0.247863
3	0	251811	-0.247554
3	0	251841	-0.247424
3	0	251871	-0.24716
3	0	251901	-0.247183
3	0	251931	-0.24718
3	0	251961	-0.247107
3	0	251991	-0.247027
3	0	252021	-0.247057
3	0	252051	-0.247218
3	0	252081	-0.246966
3	0	252111	-0.246931
3	0	252141	-0.246931
3	0	252171	-0.24692
3	0	252201	-0.247111
3	0	252231	-0.247168
3	0	252261	-0.247275
3	0	252291	-0.24705
3	0	252321	-0.247034
3	0	252351	-0.246966
3	0	252381	-0.24679
3	0	252411	-0.246828
3	0	252441	-0.24721
3	0	252471	-0.246691
3	0	252501	-0.247046
3	0	252531	-0.247015
3	0	252561	-0.246798
3	0	252591	-0.247256
3	0	252621	-0.247233
3	0	252651	-0.246931
3	0	252681	-0.246767
3	0	252711	-0.24676
3	0	252741	-0.246767
3	0	252771	-0.246454
3	0	252801	-0.246832
3	0	252831	-0.246908
3	0	252861	-0.246832
3	0	252891	-0.246763
3	0	252921	-0.246687
3	0	252951	-0.246702
3	0	252981	-0.246794
3	0	253011	-0.246752
3	0	253041	-0.24674
3	0	253071	-0.246821
3	0	253101	-0.246847
3	0	253131	-0.246805
3	0	253161	-0.246752
3	0	253191	-0.246706
3	0	253221	-0.246695
3	0	253251	-0.246866
3	0	253281	-0.246679
3	0	253311	-0.246725
3	0	253341	-0.246794
3	0	253371	-0.246534
3	0	253401	-0.2465
3	0	253431	-0.246611
3	0	253461	-0.246611
3	0	253491	-0.246527
3	0	253521	-0.246557
3	0	253551	-0.246515
3	0	253581	-0.246656
3	0	253611	-0.246996
3	0	253641	-0.247042
3	0	253671	-0.247122
3	0	253701	-0.246981
3	0	253731	-0.247141
3	0	253761	-0.247527
3	0	253791	-0.246611
3	0	253821	-0.246393
3	0	253851	-0.246542
3	0	253881	-0.246126
3	0	253911	-0.246011
3	0	253941	-0.246171
3	0	253971	-0.246649
3	0	254001	-0.246282
3	0	254031	-0.246569
3	0	254061	-0.246469
3	0	254091	-0.246202
3	0	254121	-0.246278
3	0	254151	-0.246469
3	0	254181	-0.246504
3	0	254211	-0.246912
3	0	254241	-0.246649
3	0	254271	-0.246721
3	0	254301	-0.246882
3	0	254331	-0.246908
3	0	254361	-0.24674
3	0	254391	-0.247607
3	0	254421	-0.247015
3	0	254451	-0.246958
3	0	254481	-0.246973
3	0	254503	-0.247325