File: data_dir/1540_A_08_CP_C04.mpt
EC-Lab ASCII FILE
Nb header lines : 57

Chronopotentiometry

Run on channel : 4 (SN 13148)
User :
Electrode connection : standard
Potential control : Ewe
Ewe ctrl range : min = -1.00 V, max = 1.00 V
Ewe,I filtering : 5 Hz
Safety Limits :
	Do not start on E overload
Channel : Floating
Acquisition started on : 06/24/2024 21:42:04.718
Loaded Setting File :  NONE
Saved on :
	File : 1540_A_08_CP_C04.mpr
	Directory : C:\Users\mAtsuhitA\Desktop\Oyafuso\20240624_???????4\
	Host : 192.109.209.100
Device : VSP-300 (SN 0960)
Address : USB
EC-Lab for windows v11.50 (software)
Internet server v11.50 (firmware)
Command interpretor v11.50 (firmware)
Electrode material :
Initial state :
Electrolyte :
Comments :
Cable : standard
Electrode surface area : 0.001 cm2
Characteristic mass : 0.001 g
Equivalent Weight : 0.000 g/eq.
Density : 0.000 g/cm3
Volume (V) : 0.001 cm3
Text export
   Mode : Standard
   Time format : Elapsed
Cycle Definition : Charge/Discharge alternance
Is                  200.000
unit Is             nA
vs.                 <None>
ts (h:m:s)          1000:40:0.0000
EM (V)              0.000
dQM                 200.133
unit dQM            uA.h
record              Ewe
dEs (mV)            10.00
dts (s)             10.0000
E range min (V)     -1.000
E range max (V)     1.000
I Range             1 uA
Bandwidth           8
goto Ns'            0
nc cycles           0

mode	ox/red	error	control changes	Ns changes	counter inc.	Ns	time/s	control/mA	Ewe/V	I/mA	dQ/C	(Q-Qo)/C	half cycle	Q charge/discharge/mA.h	I Range	Energy charge/W.h	Energy discharge/W.h	Capacitance charge/uF	Capacitance discharge/uF	step time/s	Q discharge/mA.h	Q charge/mA.h	Capacity/mA.h	Efficiency/%	cycle number	P/W
1	1	0	0	0	0	0	49113.4	0.0002	-0.391397	-5.85007e-07	0.0000000E+000	0.0000000E+000	0	0.000000000000000E+000	43	0.000000000000000E+000	0.000000000000000E+000	0.000000000000000E+000	0.000000000000000E+000	49113.4	0.000000000000000E+000	0.000000000000000E+000	0.000000000000000E+000	0.0000000E+000	0.000000000000000E+000	2.2897e-10
1	1	0	0	0	0	0	49113.9	0.0002	-0.381366	0.000199604	9.35966e-08	9.35966e-08	0	2.59991e-08	43	9.91517e-12	0.000000000000000E+000	0.000000000000000E+000	0.000000000000000E+000	49113.9	0.000000000000000E+000	2.59991e-08	2.59991e-08	0.0000000E+000	0.000000000000000E+000	-7.61221e-08
1	1	0	0	0	0	0	49115.1	0.0002	-0.371355	0.000199814	3.38423e-07	3.38423e-07	0	9.40063e-08	43	3.517e-11	0.000000000000000E+000	33.8039	0.000000000000000E+000	49115.1	0.000000000000000E+000	9.40063e-08	9.40063e-08	0.0000000E+000	0.000000000000000E+000	-7.42018e-08
1	1	0	0	0	0	0	49118.2	0.0002	-0.361352	0.000199814	9.38593e-07	9.38593e-07	0	2.6072e-07	43	9.54125e-11	0.000000000000000E+000	46.8955	0.000000000000000E+000	49118.2	0.000000000000000E+000	2.6072e-07	2.6072e-07	0.0000000E+000	0.000000000000000E+000	-7.22031e-08
1	1	0	0	0	0	0	49127.4	0.0002	-0.351345	0.000199825	2.78323e-06	2.78323e-06	0	7.73119e-07	43	2.75441e-10	0.000000000000000E+000	92.7075	0.000000000000000E+000	49127.4	0.000000000000000E+000	7.73119e-07	7.73119e-07	0.0000000E+000	0.000000000000000E+000	-7.02075e-08
1	1	0	0	0	0	0	49137.4	0.0002	-0.346206	0.000199821	4.7815e-06	4.7815e-06	0	1.32819e-06	43	4.67611e-10	0.000000000000000E+000	135.99	0.000000000000000E+000	49137.4	0.000000000000000E+000	1.32819e-06	1.32819e-06	0.0000000E+000	0.000000000000000E+000	-6.91793e-08
1	1	0	0	0	0	0	49147.4	0.0002	-0.342613	0.000199806	6.77978e-06	6.77978e-06	0	1.88327e-06	43	6.57788e-10	0.000000000000000E+000	174.947	0.000000000000000E+000	49147.4	0.000000000000000E+000	1.88327e-06	1.88327e-06	0.0000000E+000	0.000000000000000E+000	-6.84562e-08
1	1	0	0	0	0	0	49157.4	0.0002	-0.339753	0.000199829	8.77802e-06	8.77802e-06	0	2.43834e-06	43	8.46374e-10	0.000000000000000E+000	210.944	0.000000000000000E+000	49157.4	0.000000000000000E+000	2.43834e-06	2.43834e-06	0.0000000E+000	0.000000000000000E+000	-6.78926e-08
1	1	0	0	0	0	0	49167.4	0.0002	-0.337314	0.000199798	1.07763e-05	1.07763e-05	0	2.99342e-06	43	1.03361e-09	0.000000000000000E+000	244.623	0.000000000000000E+000	49167.4	0.000000000000000E+000	2.99342e-06	2.99342e-06	0.0000000E+000	0.000000000000000E+000	-6.73947e-08
1	1	0	0	0	0	0	49177.4	0.0002	-0.335168	0.000199829	1.27745e-05	1.27745e-05	0	3.54848e-06	43	1.21965e-09	0.000000000000000E+000	276.514	0.000000000000000E+000	49177.4	0.000000000000000E+000	3.54848e-06	3.54848e-06	0.0000000E+000	0.000000000000000E+000	-6.69763e-08
1	1	0	0	0	0	0	49187.4	0.0002	-0.333221	0.00019986	1.47727e-05	1.47727e-05	0	4.10354e-06	43	1.4046e-09	0.000000000000000E+000	306.834	0.000000000000000E+000	49187.4	0.000000000000000E+000	4.10354e-06	4.10354e-06	0.0000000E+000	0.000000000000000E+000	-6.65973e-08
1	1	0	0	0	0	0	49197.4	0.0002	-0.331373	0.000199806	1.67709e-05	1.67709e-05	0	4.65857e-06	43	1.58853e-09	0.000000000000000E+000	335.46	0.000000000000000E+000	49197.4	0.000000000000000E+000	4.65857e-06	4.65857e-06	0.0000000E+000	0.000000000000000E+000	-6.62103e-08
1	1	0	0	0	0	0	49207.4	0.0002	-0.329674	0.000199798	1.87689e-05	1.87689e-05	0	5.21359e-06	43	1.77151e-09	0.000000000000000E+000	363.087	0.000000000000000E+000	49207.4	0.000000000000000E+000	5.21359e-06	5.21359e-06	0.0000000E+000	0.000000000000000E+000	-6.58683e-08
1	1	0	0	0	0	0	49217.4	0.0002	-0.328047	0.000199795	2.07671e-05	2.07671e-05	0	5.76863e-06	43	1.95358e-09	0.000000000000000E+000	389.487	0.000000000000000E+000	49217.4	0.000000000000000E+000	5.76863e-06	5.76863e-06	0.0000000E+000	0.000000000000000E+000	-6.55421e-08
1	1	0	0	0	0	0	49227.4	0.0002	-0.32649	0.000199814	2.27652e-05	2.27652e-05	0	6.32366e-06	43	2.1348e-09	0.000000000000000E+000	414.841	0.000000000000000E+000	49227.4	0.000000000000000E+000	6.32366e-06	6.32366e-06	0.0000000E+000	0.000000000000000E+000	-6.52371e-08
1	1	0	0	0	0	0	49237.4	0.0002	-0.324981	0.000199833	2.47634e-05	2.47634e-05	0	6.87871e-06	43	2.31518e-09	0.000000000000000E+000	439.184	0.000000000000000E+000	49237.4	0.000000000000000E+000	6.87871e-06	6.87871e-06	0.0000000E+000	0.000000000000000E+000	-6.4942e-08
1	1	0	0	0	0	0	49247.4	0.0002	-0.323538	0.00019981	2.67614e-05	2.67614e-05	0	7.43372e-06	43	2.49474e-09	0.000000000000000E+000	462.774	0.000000000000000E+000	49247.4	0.000000000000000E+000	7.43372e-06	7.43372e-06	0.0000000E+000	0.000000000000000E+000	-6.46461e-08
1	1	0	0	0	0	0	49257.4	0.0002	-0.322129	0.000199798	2.87594e-05	2.87594e-05	0	7.98872e-06	43	2.67352e-09	0.000000000000000E+000	485.497	0.000000000000000E+000	49257.4	0.000000000000000E+000	7.98872e-06	7.98872e-06	0.0000000E+000	0.000000000000000E+000	-6.4361e-08
1	1	0	0	0	0	0	49267.4	0.0002	-0.320805	0.000199795	3.07574e-05	3.07574e-05	0	8.54373e-06	43	2.85158e-09	0.000000000000000E+000	507.868	0.000000000000000E+000	49267.4	0.000000000000000E+000	8.54373e-06	8.54373e-06	0.0000000E+000	0.000000000000000E+000	-6.4095e-08
1	1	0	0	0	0	0	49277.4	0.0002	-0.319426	0.000199833	3.27556e-05	3.27556e-05	0	9.09877e-06	43	3.02887e-09	0.000000000000000E+000	528.826	0.000000000000000E+000	49277.4	0.000000000000000E+000	9.09877e-06	9.09877e-06	0.0000000E+000	0.000000000000000E+000	-6.38319e-08
1	1	0	0	0	0	0	49287.4	0.0002	-0.318151	0.000199783	3.47536e-05	3.47536e-05	0	9.65378e-06	43	3.20545e-09	0.000000000000000E+000	549.765	0.000000000000000E+000	49287.4	0.000000000000000E+000	9.65378e-06	9.65378e-06	0.0000000E+000	0.000000000000000E+000	-6.35612e-08
1	1	0	0	0	0	0	49297.4	0.0002	-0.316861	0.000199844	3.67517e-05	3.67517e-05	0	1.02088e-05	43	3.38131e-09	0.000000000000000E+000	569.741	0.000000000000000E+000	49297.4	0.000000000000000E+000	1.02088e-05	1.02088e-05	0.0000000E+000	0.000000000000000E+000	-6.33228e-08
1	1	0	0	0	0	0	49307.4	0.0002	-0.315562	0.000199821	3.87498e-05	3.87498e-05	0	1.07638e-05	43	3.55646e-09	0.000000000000000E+000	588.867	0.000000000000000E+000	49307.4	0.000000000000000E+000	1.07638e-05	1.07638e-05	0.0000000E+000	0.000000000000000E+000	-6.30561e-08
1	1	0	0	0	0	0	49317.4	0.0002	-0.31428	0.000199798	4.07478e-05	4.07478e-05	0	1.13188e-05	43	3.73088e-09	0.000000000000000E+000	607.389	0.000000000000000E+000	49317.4	0.000000000000000E+000	1.13188e-05	1.13188e-05	0.0000000E+000	0.000000000000000E+000	-6.27926e-08
1	1	0	0	0	0	0	49327.4	0.0002	-0.313062	0.000199844	4.27459e-05	4.27459e-05	0	1.18738e-05	43	3.90464e-09	0.000000000000000E+000	625.81	0.000000000000000E+000	49327.4	0.000000000000000E+000	1.18738e-05	1.18738e-05	0.0000000E+000	0.000000000000000E+000	-6.25636e-08
1	1	0	0	0	0	0	49337.4	0.0002	-0.311848	0.000199791	4.47439e-05	4.47439e-05	0	1.24289e-05	43	4.07772e-09	0.000000000000000E+000	643.622	0.000000000000000E+000	49337.4	0.000000000000000E+000	1.24289e-05	1.24289e-05	0.0000000E+000	0.000000000000000E+000	-6.23043e-08
1	1	0	0	0	0	0	49347.4	0.0002	-0.310576	0.00019984	4.6742e-05	4.6742e-05	0	1.29839e-05	43	4.25009e-09	0.000000000000000E+000	660.287	0.000000000000000E+000	49347.4	0.000000000000000E+000	1.29839e-05	1.29839e-05	0.0000000E+000	0.000000000000000E+000	-6.20657e-08
1	1	0	0	0	0	0	49357.4	0.0002	-0.309377	0.00019984	4.874e-05	4.874e-05	0	1.35389e-05	43	4.4218e-09	0.000000000000000E+000	677.047	0.000000000000000E+000	49357.4	0.000000000000000E+000	1.35389e-05	1.35389e-05	0.0000000E+000	0.000000000000000E+000	-6.18261e-08
1	1	0	0	0	0	0	49367.4	0.0002	-0.308114	0.00019981	5.07382e-05	5.07382e-05	0	1.40939e-05	43	4.59282e-09	0.000000000000000E+000	692.644	0.000000000000000E+000	49367.4	0.000000000000000E+000	1.40939e-05	1.40939e-05	0.0000000E+000	0.000000000000000E+000	-6.15641e-08
1	1	0	0	0	0	0	49377.4	0.0002	-0.306949	0.000199818	5.27364e-05	5.27364e-05	0	1.4649e-05	43	4.76319e-09	0.000000000000000E+000	708.656	0.000000000000000E+000	49377.4	0.000000000000000E+000	1.4649e-05	1.4649e-05	0.0000000E+000	0.000000000000000E+000	-6.13338e-08
1	1	0	0	0	0	0	49387.4	0.0002	-0.305636	0.000199848	5.47345e-05	5.47345e-05	0	1.5204e-05	43	4.93283e-09	0.000000000000000E+000	722.751	0.000000000000000E+000	49387.4	0.000000000000000E+000	1.5204e-05	1.5204e-05	0.0000000E+000	0.000000000000000E+000	-6.10807e-08
1	1	0	0	0	0	0	49397.4	0.0002	-0.304448	0.000199768	5.67326e-05	5.67326e-05	0	1.5759e-05	43	5.1018e-09	0.000000000000000E+000	737.57	0.000000000000000E+000	49397.4	0.000000000000000E+000	1.5759e-05	1.5759e-05	0.0000000E+000	0.000000000000000E+000	-6.0819e-08
1	1	0	0	0	0	0	49407.4	0.0002	-0.303207	0.000199833	5.87307e-05	5.87307e-05	0	1.63141e-05	43	5.2701e-09	0.000000000000000E+000	751.425	0.000000000000000E+000	49407.4	0.000000000000000E+000	1.63141e-05	1.63141e-05	0.0000000E+000	0.000000000000000E+000	-6.05908e-08
1	1	0	0	0	0	0	49417.4	0.0002	-0.302001	0.000199837	6.07289e-05	6.07289e-05	0	1.68691e-05	43	5.43772e-09	0.000000000000000E+000	765.18	0.000000000000000E+000	49417.4	0.000000000000000E+000	1.68691e-05	1.68691e-05	0.0000000E+000	0.000000000000000E+000	-6.03508e-08
1	1	0	0	0	0	0	49427.4	0.0002	-0.300718	0.000199821	6.27271e-05	6.27271e-05	0	1.74242e-05	43	5.60464e-09	0.000000000000000E+000	777.784	0.000000000000000E+000	49427.4	0.000000000000000E+000	1.74242e-05	1.74242e-05	0.0000000E+000	0.000000000000000E+000	-6.00899e-08
1	1	0	0	0	0	0	49437.4	0.0002	-0.29947	0.000199802	6.47253e-05	6.47253e-05	0	1.79792e-05	43	5.77086e-09	0.000000000000000E+000	790.326	0.000000000000000E+000	49437.4	0.000000000000000E+000	1.79792e-05	1.79792e-05	0.0000000E+000	0.000000000000000E+000	-5.98347e-08
1	1	0	0	0	0	0	49447.4	0.0002	-0.298244	0.000199833	6.67235e-05	6.67235e-05	0	1.85343e-05	43	5.9364e-09	0.000000000000000E+000	802.712	0.000000000000000E+000	49447.4	0.000000000000000E+000	1.85343e-05	1.85343e-05	0.0000000E+000	0.000000000000000E+000	-5.95989e-08
1	1	0	0	0	0	0	49457.4	0.0002	-0.296988	0.000199806	6.87217e-05	6.87217e-05	0	1.90894e-05	43	6.10125e-09	0.000000000000000E+000	814.445	0.000000000000000E+000	49457.4	0.000000000000000E+000	1.90894e-05	1.90894e-05	0.0000000E+000	0.000000000000000E+000	-5.934e-08
1	1	0	0	0	0	0	49467.4	0.0002	-0.295674	0.000199779	7.07201e-05	7.07201e-05	0	1.96445e-05	43	6.26537e-09	0.000000000000000E+000	825.281	0.000000000000000E+000	49467.4	0.000000000000000E+000	1.96445e-05	1.96445e-05	0.0000000E+000	0.000000000000000E+000	-5.90696e-08
1	1	0	0	0	0	0	49477.4	0.0002	-0.294418	0.000199856	7.27183e-05	7.27183e-05	0	2.01995e-05	43	6.4288e-09	0.000000000000000E+000	836.341	0.000000000000000E+000	49477.4	0.000000000000000E+000	2.01995e-05	2.01995e-05	0.0000000E+000	0.000000000000000E+000	-5.88412e-08
1	1	0	0	0	0	0	49487.4	0.0002	-0.293109	0.00019981	7.47166e-05	7.47166e-05	0	2.07546e-05	43	6.5915e-09	0.000000000000000E+000	846.573	0.000000000000000E+000	49487.4	0.000000000000000E+000	2.07546e-05	2.07546e-05	0.0000000E+000	0.000000000000000E+000	-5.8566e-08
1	1	0	0	0	0	0	49497.4	0.0002	-0.291723	0.000199867	7.67149e-05	7.67149e-05	0	2.13097e-05	43	6.75343e-09	0.000000000000000E+000	855.776	0.000000000000000E+000	49497.4	0.000000000000000E+000	2.13097e-05	2.13097e-05	0.0000000E+000	0.000000000000000E+000	-5.83058e-08
1	1	0	0	0	0	0	49507.4	0.0002	-0.290467	0.00019986	7.87132e-05	7.87132e-05	0	2.18648e-05	43	6.91466e-09	0.000000000000000E+000	865.934	0.000000000000000E+000	49507.4	0.000000000000000E+000	2.18648e-05	2.18648e-05	0.0000000E+000	0.000000000000000E+000	-5.80525e-08
1	1	0	0	0	0	0	49517.4	0.0002	-0.289111	0.000199818	8.07116e-05	8.07116e-05	0	2.24199e-05	43	7.07515e-09	0.000000000000000E+000	874.873	0.000000000000000E+000	49517.4	0.000000000000000E+000	2.24199e-05	2.24199e-05	0.0000000E+000	0.000000000000000E+000	-5.77695e-08
1	1	0	0	0	0	0	49527.4	0.0002	-0.287714	0.000199856	8.27098e-05	8.27098e-05	0	2.29749e-05	43	7.23484e-09	0.000000000000000E+000	883.155	0.000000000000000E+000	49527.4	0.000000000000000E+000	2.29749e-05	2.29749e-05	0.0000000E+000	0.000000000000000E+000	-5.75013e-08
1	1	0	0	0	0	0	49537.4	0.0002	-0.28632	0.000199825	8.47082e-05	8.47082e-05	0	2.353e-05	43	7.39378e-09	0.000000000000000E+000	891.231	0.000000000000000E+000	49537.4	0.000000000000000E+000	2.353e-05	2.353e-05	0.0000000E+000	0.000000000000000E+000	-5.7214e-08
1	1	0	0	0	0	0	49547.4	0.0002	-0.284889	0.000199894	8.67066e-05	8.67066e-05	0	2.40852e-05	43	7.55193e-09	0.000000000000000E+000	898.719	0.000000000000000E+000	49547.4	0.000000000000000E+000	2.40852e-05	2.40852e-05	0.0000000E+000	0.000000000000000E+000	-5.69475e-08
1	1	0	0	0	0	0	49557.4	0.0002	-0.283457	0.000199783	8.8705e-05	8.8705e-05	0	2.46403e-05	43	7.70928e-09	0.000000000000000E+000	905.988	0.000000000000000E+000	49557.4	0.000000000000000E+000	2.46403e-05	2.46403e-05	0.0000000E+000	0.000000000000000E+000	-5.66299e-08
1	1	0	0	0	0	0	49567.4	0.0002	-0.281949	0.000199802	9.07033e-05	9.07033e-05	0	2.51954e-05	43	7.86578e-09	0.000000000000000E+000	912.344	0.000000000000000E+000	49567.4	0.000000000000000E+000	2.51954e-05	2.51954e-05	0.0000000E+000	0.000000000000000E+000	-5.6334e-08
1	1	0	0	0	0	0	49577.4	0.0002	-0.280421	0.000199875	9.27017e-05	9.27017e-05	0	2.57505e-05	43	8.02145e-09	0.000000000000000E+000	918.338	0.000000000000000E+000	49577.4	0.000000000000000E+000	2.57505e-05	2.57505e-05	0.0000000E+000	0.000000000000000E+000	-5.60492e-08
1	1	0	0	0	0	0	49587.4	0.0002	-0.278833	0.000199814	9.47001e-05	9.47001e-05	0	2.63056e-05	43	8.17623e-09	0.000000000000000E+000	923.603	0.000000000000000E+000	49587.4	0.000000000000000E+000	2.63056e-05	2.63056e-05	0.0000000E+000	0.000000000000000E+000	-5.57147e-08
1	1	0	0	0	0	0	49597.4	0.0002	-0.27726	0.00019989	9.66985e-05	9.66985e-05	0	2.68607e-05	43	8.33015e-09	0.000000000000000E+000	928.844	0.000000000000000E+000	49597.4	0.000000000000000E+000	2.68607e-05	2.68607e-05	0.0000000E+000	0.000000000000000E+000	-5.54216e-08
1	1	0	0	0	0	0	49607.4	0.0002	-0.275569	0.000199821	9.86969e-05	9.86969e-05	0	2.74158e-05	43	8.48312e-09	0.000000000000000E+000	932.883	0.000000000000000E+000	49607.4	0.000000000000000E+000	2.74158e-05	2.74158e-05	0.0000000E+000	0.000000000000000E+000	-5.50645e-08
1	1	0	0	0	0	0	49617.4	0.0002	-0.273839	0.000199833	0.000100695	0.000100695	0	2.79709e-05	43	8.63512e-09	0.000000000000000E+000	936.462	0.000000000000000E+000	49617.4	0.000000000000000E+000	2.79709e-05	2.79709e-05	0.0000000E+000	0.000000000000000E+000	-5.47221e-08
1	1	0	0	0	0	0	49627.4	0.0002	-0.27219	0.000199852	0.000102694	0.000102694	0	2.8526e-05	43	8.78621e-09	0.000000000000000E+000	940.619	0.000000000000000E+000	49627.4	0.000000000000000E+000	2.8526e-05	2.8526e-05	0.0000000E+000	0.000000000000000E+000	-5.43977e-08
1	1	0	0	0	0	0	49637.4	0.0002	-0.270346	0.000199825	0.000104692	0.000104692	0	2.90811e-05	43	8.93627e-09	0.000000000000000E+000	942.994	0.000000000000000E+000	49637.4	0.000000000000000E+000	2.90811e-05	2.90811e-05	0.0000000E+000	0.000000000000000E+000	-5.40219e-08
1	1	0	0	0	0	0	49647.4	0.0002	-0.268521	0.000199833	0.00010669	0.00010669	0	2.96362e-05	43	9.08533e-09	0.000000000000000E+000	945.451	0.000000000000000E+000	49647.4	0.000000000000000E+000	2.96362e-05	2.96362e-05	0.0000000E+000	0.000000000000000E+000	-5.36592e-08
1	1	0	0	0	0	0	49657.4	0.0002	-0.266612	0.000199821	0.000108688	0.000108688	0	3.01912e-05	43	9.23331e-09	0.000000000000000E+000	947.136	0.000000000000000E+000	49657.4	0.000000000000000E+000	3.01912e-05	3.01912e-05	0.0000000E+000	0.000000000000000E+000	-5.32747e-08
1	1	0	0	0	0	0	49667.4	0.0002	-0.264626	0.000199875	0.000110687	0.000110687	0	3.07463e-05	43	9.38019e-09	0.000000000000000E+000	948.144	0.000000000000000E+000	49667.4	0.000000000000000E+000	3.07463e-05	3.07463e-05	0.0000000E+000	0.000000000000000E+000	-5.28921e-08
1	1	0	0	0	0	0	49677.4	0.0002	-0.26261	0.00019984	0.000112685	0.000112685	0	3.13013e-05	43	9.52595e-09	0.000000000000000E+000	948.875	0.000000000000000E+000	49677.4	0.000000000000000E+000	3.13013e-05	3.13013e-05	0.0000000E+000	0.000000000000000E+000	-5.24802e-08
1	1	0	0	0	0	0	49687.4	0.0002	-0.260553	0.000199818	0.000114683	0.000114683	0	3.18564e-05	43	9.67057e-09	0.000000000000000E+000	949.252	0.000000000000000E+000	49687.4	0.000000000000000E+000	3.18564e-05	3.18564e-05	0.0000000E+000	0.000000000000000E+000	-5.2063e-08
1	1	0	0	0	0	0	49697.4	0.0002	-0.258281	0.000199768	0.000116681	0.000116681	0	3.24114e-05	43	9.81393e-09	0.000000000000000E+000	947.966	0.000000000000000E+000	49697.4	0.000000000000000E+000	3.24114e-05	3.24114e-05	0.0000000E+000	0.000000000000000E+000	-5.15962e-08
1	1	0	0	0	0	0	49707.4	0.0002	-0.255998	0.000199818	0.000118679	0.000118679	0	3.29664e-05	43	9.95601e-09	0.000000000000000E+000	946.639	0.000000000000000E+000	49707.4	0.000000000000000E+000	3.29664e-05	3.29664e-05	0.0000000E+000	0.000000000000000E+000	-5.11528e-08
1	1	0	0	0	0	0	49717.4	0.0002	-0.253619	0.000199844	0.000120677	0.000120677	0	3.35215e-05	43	1.00968e-08	0.000000000000000E+000	944.655	0.000000000000000E+000	49717.4	0.000000000000000E+000	3.35215e-05	3.35215e-05	0.0000000E+000	0.000000000000000E+000	-5.06843e-08
1	1	0	0	0	0	0	49727.4	0.0002	-0.251111	0.000199844	0.000122675	0.000122675	0	3.40765e-05	43	1.02362e-08	0.000000000000000E+000	941.803	0.000000000000000E+000	49727.4	0.000000000000000E+000	3.40765e-05	3.40765e-05	0.0000000E+000	0.000000000000000E+000	-5.0183e-08
1	1	0	0	0	0	0	49737.4	0.0002	-0.248526	0.000199829	0.000124674	0.000124674	0	3.46315e-05	43	1.03741e-08	0.000000000000000E+000	938.519	0.000000000000000E+000	49737.4	0.000000000000000E+000	3.46315e-05	3.46315e-05	0.0000000E+000	0.000000000000000E+000	-4.96626e-08
1	1	0	0	0	0	0	49747.4	0.0002	-0.245834	0.000199867	0.000126672	0.000126672	0	3.51866e-05	43	1.05105e-08	0.000000000000000E+000	934.622	0.000000000000000E+000	49747.4	0.000000000000000E+000	3.51866e-05	3.51866e-05	0.0000000E+000	0.000000000000000E+000	-4.91342e-08
1	1	0	0	0	0	0	49757.4	0.0002	-0.243005	0.000199806	0.00012867	0.00012867	0	3.57416e-05	43	1.06454e-08	0.000000000000000E+000	929.952	0.000000000000000E+000	49757.4	0.000000000000000E+000	3.57416e-05	3.57416e-05	0.0000000E+000	0.000000000000000E+000	-4.85539e-08
1	1	0	0	0	0	0	49767.4	0.0002	-0.240069	0.000199882	0.000130668	0.000130668	0	3.62966e-05	43	1.07787e-08	0.000000000000000E+000	924.769	0.000000000000000E+000	49767.4	0.000000000000000E+000	3.62966e-05	3.62966e-05	0.0000000E+000	0.000000000000000E+000	-4.79855e-08
1	1	0	0	0	0	0	49777.4	0.0002	-0.237018	0.00019984	0.000132666	0.000132666	0	3.68516e-05	43	1.09102e-08	0.000000000000000E+000	919.067	0.000000000000000E+000	49777.4	0.000000000000000E+000	3.68516e-05	3.68516e-05	0.0000000E+000	0.000000000000000E+000	-4.73658e-08
1	1	0	0	0	0	0	49787.4	0.0002	-0.23375	0.000199764	0.000134664	0.000134664	0	3.74066e-05	43	1.10399e-08	0.000000000000000E+000	912.255	0.000000000000000E+000	49787.4	0.000000000000000E+000	3.74066e-05	3.74066e-05	0.0000000E+000	0.000000000000000E+000	-4.66949e-08
1	1	0	0	0	0	0	49797.4	0.0002	-0.230402	0.000199821	0.000136662	0.000136662	0	3.79616e-05	43	1.11678e-08	0.000000000000000E+000	905.256	0.000000000000000E+000	49797.4	0.000000000000000E+000	3.79616e-05	3.79616e-05	0.0000000E+000	0.000000000000000E+000	-4.60392e-08
1	1	0	0	0	0	0	49807.4	0.0002	-0.226843	0.000199802	0.00013866	0.00013866	0	3.85166e-05	43	1.12937e-08	0.000000000000000E+000	897.34	0.000000000000000E+000	49807.4	0.000000000000000E+000	3.85166e-05	3.85166e-05	0.0000000E+000	0.000000000000000E+000	-4.53238e-08
1	1	0	0	0	0	0	49817.4	0.0002	-0.223063	0.000199814	0.000140658	0.000140658	0	3.90717e-05	43	1.14175e-08	0.000000000000000E+000	888.537	0.000000000000000E+000	49817.4	0.000000000000000E+000	3.90717e-05	3.90717e-05	0.0000000E+000	0.000000000000000E+000	-4.45711e-08
1	1	0	0	0	0	0	49827.4	0.0002	-0.219238	0.000199806	0.000142656	0.000142656	0	3.96267e-05	43	1.15392e-08	0.000000000000000E+000	879.895	0.000000000000000E+000	49827.4	0.000000000000000E+000	3.96267e-05	3.96267e-05	0.0000000E+000	0.000000000000000E+000	-4.3805e-08
1	1	0	0	0	0	0	49837.4	0.0002	-0.215107	0.000199825	0.000144655	0.000144655	0	4.01818e-05	43	1.16586e-08	0.000000000000000E+000	870.051	0.000000000000000E+000	49837.4	0.000000000000000E+000	4.01818e-05	4.01818e-05	0.0000000E+000	0.000000000000000E+000	-4.29837e-08
1	1	0	0	0	0	0	49847.4	0.0002	-0.210861	0.000199795	0.000146653	0.000146653	0	4.07369e-05	43	1.17757e-08	0.000000000000000E+000	860.107	0.000000000000000E+000	49847.4	0.000000000000000E+000	4.07369e-05	4.07369e-05	0.0000000E+000	0.000000000000000E+000	-4.21289e-08
1	1	0	0	0	0	0	49857.4	0.0002	-0.206512	0.000199833	0.000148651	0.000148651	0	4.1292e-05	43	1.18903e-08	0.000000000000000E+000	850.144	0.000000000000000E+000	49857.4	0.000000000000000E+000	4.1292e-05	4.1292e-05	0.0000000E+000	0.000000000000000E+000	-4.12679e-08
1	1	0	0	0	0	0	49867.4	0.0002	-0.201992	0.000199814	0.000150649	0.000150649	0	4.1847e-05	43	1.20024e-08	0.000000000000000E+000	839.859	0.000000000000000E+000	49867.4	0.000000000000000E+000	4.1847e-05	4.1847e-05	0.0000000E+000	0.000000000000000E+000	-4.03607e-08
1	1	0	0	0	0	0	49877.4	0.0002	-0.19741	0.000199795	0.000152647	0.000152647	0	4.24021e-05	43	1.2112e-08	0.000000000000000E+000	829.803	0.000000000000000E+000	49877.4	0.000000000000000E+000	4.24021e-05	4.24021e-05	0.0000000E+000	0.000000000000000E+000	-3.94415e-08
1	1	0	0	0	0	0	49887.4	0.0002	-0.192561	0.000199818	0.000154646	0.000154646	0	4.29571e-05	43	1.22189e-08	0.000000000000000E+000	819.075	0.000000000000000E+000	49887.4	0.000000000000000E+000	4.29571e-05	4.29571e-05	0.0000000E+000	0.000000000000000E+000	-3.84771e-08
1	1	0	0	0	0	0	49897.4	0.0002	-0.187617	0.000199802	0.000156644	0.000156644	0	4.35121e-05	43	1.2323e-08	0.000000000000000E+000	808.486	0.000000000000000E+000	49897.4	0.000000000000000E+000	4.35121e-05	4.35121e-05	0.0000000E+000	0.000000000000000E+000	-3.74863e-08
1	1	0	0	0	0	0	49907.4	0.0002	-0.182447	0.00019984	0.000158642	0.000158642	0	4.40672e-05	43	1.24243e-08	0.000000000000000E+000	797.52	0.000000000000000E+000	49907.4	0.000000000000000E+000	4.40672e-05	4.40672e-05	0.0000000E+000	0.000000000000000E+000	-3.64604e-08
1	1	0	0	0	0	0	49917.4	0.0002	-0.177297	0.000199837	0.00016064	0.00016064	0	4.46223e-05	43	1.25227e-08	0.000000000000000E+000	787.184	0.000000000000000E+000	49917.4	0.000000000000000E+000	4.46223e-05	4.46223e-05	0.0000000E+000	0.000000000000000E+000	-3.54304e-08
1	1	0	0	0	0	0	49927.4	0.0002	-0.172043	0.000199837	0.000162638	0.000162638	0	4.51773e-05	43	1.26182e-08	0.000000000000000E+000	776.973	0.000000000000000E+000	49927.4	0.000000000000000E+000	4.51773e-05	4.51773e-05	0.0000000E+000	0.000000000000000E+000	-3.43806e-08
1	1	0	0	0	0	0	49937.4	0.0002	-0.166679	0.000199848	0.000164637	0.000164637	0	4.57324e-05	43	1.27107e-08	0.000000000000000E+000	766.866	0.000000000000000E+000	49937.4	0.000000000000000E+000	4.57324e-05	4.57324e-05	0.0000000E+000	0.000000000000000E+000	-3.33105e-08
1	1	0	0	0	0	0	49947.4	0.0002	-0.161254	0.000199814	0.000166635	0.000166635	0	4.62874e-05	43	1.28002e-08	0.000000000000000E+000	757.042	0.000000000000000E+000	49947.4	0.000000000000000E+000	4.62874e-05	4.62874e-05	0.0000000E+000	0.000000000000000E+000	-3.22207e-08
1	1	0	0	0	0	0	49957.4	0.0002	-0.155733	0.000199829	0.000168633	0.000168633	0	4.68425e-05	43	1.28866e-08	0.000000000000000E+000	747.375	0.000000000000000E+000	49957.4	0.000000000000000E+000	4.68425e-05	4.68425e-05	0.0000000E+000	0.000000000000000E+000	-3.11199e-08
1	1	0	0	0	0	0	49967.4	0.0002	-0.150239	0.000199825	0.000170631	0.000170631	0	4.73976e-05	43	1.297e-08	0.000000000000000E+000	738.255	0.000000000000000E+000	49967.4	0.000000000000000E+000	4.73976e-05	4.73976e-05	0.0000000E+000	0.000000000000000E+000	-3.00215e-08
1	1	0	0	0	0	0	49977.4	0.0002	-0.144687	0.000199829	0.000172629	0.000172629	0	4.79526e-05	43	1.30503e-08	0.000000000000000E+000	729.382	0.000000000000000E+000	49977.4	0.000000000000000E+000	4.79526e-05	4.79526e-05	0.0000000E+000	0.000000000000000E+000	-2.89127e-08
1	1	0	0	0	0	0	49987.4	0.0002	-0.139082	0.000199829	0.000174628	0.000174628	0	4.85077e-05	43	1.31275e-08	0.000000000000000E+000	720.756	0.000000000000000E+000	49987.4	0.000000000000000E+000	4.85077e-05	4.85077e-05	0.0000000E+000	0.000000000000000E+000	-2.77927e-08
1	1	0	0	0	0	0	49997.4	0.0002	-0.133485	0.000199818	0.000176626	0.000176626	0	4.90627e-05	43	1.32016e-08	0.000000000000000E+000	712.542	0.000000000000000E+000	49997.4	0.000000000000000E+000	4.90627e-05	4.90627e-05	0.0000000E+000	0.000000000000000E+000	-2.66727e-08
1	1	0	0	0	0	0	50007.4	0.0002	-0.127892	0.00019981	0.000178624	0.000178624	0	4.96178e-05	43	1.32726e-08	0.000000000000000E+000	704.702	0.000000000000000E+000	50007.4	0.000000000000000E+000	4.96178e-05	4.96178e-05	0.0000000E+000	0.000000000000000E+000	-2.5554e-08
1	1	0	0	0	0	0	50017.4	0.0002	-0.122191	0.000199844	0.000180622	0.000180622	0	5.01729e-05	43	1.33404e-08	0.000000000000000E+000	696.913	0.000000000000000E+000	50017.4	0.000000000000000E+000	5.01729e-05	5.01729e-05	0.0000000E+000	0.000000000000000E+000	-2.44193e-08
1	1	0	0	0	0	0	50027.4	0.0002	-0.116556	0.000199791	0.00018262	0.00018262	0	5.07279e-05	43	1.34051e-08	0.000000000000000E+000	689.627	0.000000000000000E+000	50027.4	0.000000000000000E+000	5.07279e-05	5.07279e-05	0.0000000E+000	0.000000000000000E+000	-2.32868e-08
1	1	0	0	0	0	0	50037.4	0.0002	-0.11086	0.000199818	0.000184618	0.000184618	0	5.12829e-05	43	1.34666e-08	0.000000000000000E+000	682.49	0.000000000000000E+000	50037.4	0.000000000000000E+000	5.12829e-05	5.12829e-05	0.0000000E+000	0.000000000000000E+000	-2.21517e-08
1	1	0	0	0	0	0	50047.4	0.0002	-0.105201	0.000199779	0.000186616	0.000186616	0	5.18379e-05	43	1.3525e-08	0.000000000000000E+000	675.742	0.000000000000000E+000	50047.4	0.000000000000000E+000	5.18379e-05	5.18379e-05	0.0000000E+000	0.000000000000000E+000	-2.1017e-08
1	1	0	0	0	0	0	50057.4	0.0002	-0.0995239	0.000199768	0.000188614	0.000188614	0	5.23929e-05	43	1.35803e-08	0.000000000000000E+000	669.219	0.000000000000000E+000	50057.4	0.000000000000000E+000	5.23929e-05	5.23929e-05	0.0000000E+000	0.000000000000000E+000	-1.98817e-08
1	1	0	0	0	0	0	50067.4	0.0002	-0.0939305	0.000199829	0.000190612	0.000190612	0	5.29479e-05	43	1.36324e-08	0.000000000000000E+000	663.147	0.000000000000000E+000	50067.4	0.000000000000000E+000	5.29479e-05	5.29479e-05	0.0000000E+000	0.000000000000000E+000	-1.877e-08
1	1	0	0	0	0	0	50077.4	0.0002	-0.0882875	0.000199795	0.00019261	0.00019261	0	5.35028e-05	43	1.36814e-08	0.000000000000000E+000	657.196	0.000000000000000E+000	50077.4	0.000000000000000E+000	5.35028e-05	5.35028e-05	0.0000000E+000	0.000000000000000E+000	-1.76394e-08
1	1	0	0	0	0	0	50087.4	0.0002	-0.0827208	0.000199787	0.000194608	0.000194608	0	5.40579e-05	43	1.37273e-08	0.000000000000000E+000	651.636	0.000000000000000E+000	50087.4	0.000000000000000E+000	5.40579e-05	5.40579e-05	0.0000000E+000	0.000000000000000E+000	-1.65265e-08
1	1	0	0	0	0	0	50097.4	0.0002	-0.0770435	0.000199791	0.000196606	0.000196606	0	5.46129e-05	43	1.37701e-08	0.000000000000000E+000	646.045	0.000000000000000E+000	50097.4	0.000000000000000E+000	5.46129e-05	5.46129e-05	0.0000000E+000	0.000000000000000E+000	-1.53926e-08
1	1	0	0	0	0	0	50107.4	0.0002	-0.0714272	0.000199798	0.000198604	0.000198604	0	5.51679e-05	43	1.38097e-08	0.000000000000000E+000	640.785	0.000000000000000E+000	50107.4	0.000000000000000E+000	5.51679e-05	5.51679e-05	0.0000000E+000	0.000000000000000E+000	-1.4271e-08
1	1	0	0	0	0	0	50117.4	0.0002	-0.0659101	0.000199791	0.000200602	0.000200602	0	5.57229e-05	43	1.38463e-08	0.000000000000000E+000	635.912	0.000000000000000E+000	50117.4	0.000000000000000E+000	5.57229e-05	5.57229e-05	0.0000000E+000	0.000000000000000E+000	-1.31682e-08
1	1	0	0	0	0	0	50127.4	0.0002	-0.0603816	0.000199798	0.0002026	0.0002026	0	5.62779e-05	43	1.38798e-08	0.000000000000000E+000	631.184	0.000000000000000E+000	50127.4	0.000000000000000E+000	5.62779e-05	5.62779e-05	0.0000000E+000	0.000000000000000E+000	-1.20642e-08
1	1	0	0	0	0	0	50137.4	0.0002	-0.0548264	0.000199764	0.000204598	0.000204598	0	5.68329e-05	43	1.39102e-08	0.000000000000000E+000	626.564	0.000000000000000E+000	50137.4	0.000000000000000E+000	5.68329e-05	5.68329e-05	0.0000000E+000	0.000000000000000E+000	-1.09523e-08
1	1	0	0	0	0	0	50147.4	0.0002	-0.0492559	0.000199787	0.000206596	0.000206596	0	5.73879e-05	43	1.39376e-08	0.000000000000000E+000	622.071	0.000000000000000E+000	50147.4	0.000000000000000E+000	5.73879e-05	5.73879e-05	0.0000000E+000	0.000000000000000E+000	-9.84069e-09
1	1	0	0	0	0	0	50157.4	0.0002	-0.0437351	0.000199795	0.000208594	0.000208594	0	5.79429e-05	43	1.39618e-08	0.000000000000000E+000	617.817	0.000000000000000E+000	50157.4	0.000000000000000E+000	5.79429e-05	5.79429e-05	0.0000000E+000	0.000000000000000E+000	-8.73803e-09
1	1	0	0	0	0	0	50167.4	0.0002	-0.0382028	0.000199844	0.000210592	0.000210592	0	5.84979e-05	43	1.3983e-08	0.000000000000000E+000	613.679	0.000000000000000E+000	50167.4	0.000000000000000E+000	5.84979e-05	5.84979e-05	0.0000000E+000	0.000000000000000E+000	-7.63461e-09
1	1	0	0	0	0	0	50177.4	0.0002	-0.0326896	0.000199806	0.000212591	0.000212591	0	5.90529e-05	43	1.40012e-08	0.000000000000000E+000	609.706	0.000000000000000E+000	50177.4	0.000000000000000E+000	5.90529e-05	5.90529e-05	0.0000000E+000	0.000000000000000E+000	-6.53157e-09
1	1	0	0	0	0	0	50187.4	0.0002	-0.0271573	0.000199798	0.000214589	0.000214589	0	5.96079e-05	43	1.40163e-08	0.000000000000000E+000	605.824	0.000000000000000E+000	50187.4	0.000000000000000E+000	5.96079e-05	5.96079e-05	0.0000000E+000	0.000000000000000E+000	-5.42598e-09
1	1	0	0	0	0	0	50197.4	0.0002	-0.021541	0.000199775	0.000216587	0.000216587	0	6.01629e-05	43	1.40282e-08	0.000000000000000E+000	601.921	0.000000000000000E+000	50197.4	0.000000000000000E+000	6.01629e-05	6.01629e-05	0.0000000E+000	0.000000000000000E+000	-4.30336e-09
1	1	0	0	0	0	0	50207.4	0.0002	-0.015917	0.000199768	0.000218584	0.000218584	0	6.07179e-05	43	1.40371e-08	0.000000000000000E+000	598.125	0.000000000000000E+000	50207.4	0.000000000000000E+000	6.07179e-05	6.07179e-05	0.0000000E+000	0.000000000000000E+000	-3.17971e-09
1	1	0	0	0	0	0	50217.4	0.0002	-0.0102511	0.000199787	0.000220582	0.000220582	0	6.12728e-05	43	1.40427e-08	0.000000000000000E+000	594.376	0.000000000000000E+000	50217.4	0.000000000000000E+000	6.12728e-05	6.12728e-05	0.0000000E+000	0.000000000000000E+000	-2.04804e-09
1	1	0	0	0	0	0	50227.4	0.0002	-0.00457753	0.000199787	0.00022258	0.00022258	0	6.18277e-05	43	1.40453e-08	0.000000000000000E+000	590.728	0.000000000000000E+000	50227.4	0.000000000000000E+000	6.18277e-05	6.18277e-05	0.0000000E+000	0.000000000000000E+000	-9.14531e-10
1	1	0	0	0	0	0	50235.3	0.0002	1.93563e-05	0.000199787	0.000224155	0.000224155	0	6.22653e-05	43	1.40453e-08	0.000000000000000E+000	587.738	0.000000000000000E+000	50235.3	0.000000000000000E+000	6.22653e-05	6.22653e-05	0.0000000E+000	0.000000000000000E+000	3.86714e-12
1	1	0	0	0	0	0	50235.3	0.0002	-7.9912e-05	0.000199791	0.000224155	0.000224155	0	6.22653e-05	43	1.40453e-08	0.000000000000000E+000	587.891	0.000000000000000E+000	50235.3	0.000000000000000E+000	6.22653e-05	6.22653e-05	0.0000000E+000	0.000000000000000E+000	-1.59657e-11