File: data_dir/1540_A_09_OCV_C04.mpt
EC-Lab ASCII FILE
Nb header lines : 48

Open Circuit Voltage

Run on channel : 4 (SN 13148)
User :
Electrode connection : standard
Potential control : Ewe
Ewe ctrl range : min = -1.00 V, max = 1.00 V
Ewe,I filtering : 5 Hz
Safety Limits :
	Do not start on E overload
Channel : Floating
Acquisition started on : 06/24/2024 21:42:04.718
Loaded Setting File :  NONE
Saved on :
	File : 1540_A_09_OCV_C04.mpr
	Directory : C:\Users\mAtsuhitA\Desktop\Oyafuso\20240624_???????4\
	Host : 192.109.209.100
Device : VSP-300 (SN 0960)
Address : USB
EC-Lab for windows v11.50 (software)
Internet server v11.50 (firmware)
Command interpretor v11.50 (firmware)
Electrode material :
Initial state :
Electrolyte :
Comments :
Cable : standard
Electrode surface area : 0.001 cm2
Characteristic mass : 0.001 g
Equivalent Weight : 0.000 g/eq.
Density : 0.000 g/cm3
Volume (V) : 0.001 cm3
Text export
   Mode : Standard
   Time format : Elapsed
Cycle Definition : Charge/Discharge alternance
tR (h:m:s)          5:00:0.0000
dER/dt (mV/h)       0.0
record              Ewe
dER (mV)            10.00
dtR (s)             30.0000
E range min (V)     -1.000
E range max (V)     1.000

mode	error	time/s	Ewe/V
3	0	50235.3	-0.000361402
3	0	50235.6	-0.0105641
3	0	50235.9	-0.0205779
3	0	50236.4	-0.0306469
3	0	50236.8	-0.0406501
3	0	50237.4	-0.0506686
3	0	50238	-0.0606833
3	0	50238.7	-0.0707017
3	0	50239.4	-0.0807126
3	0	50240.2	-0.0907234
3	0	50241	-0.100746
3	0	50241.8	-0.110749
3	0	50242.7	-0.12076
3	0	50243.6	-0.130767
3	0	50244.5	-0.14077
3	0	50245.4	-0.150792
3	0	50246.3	-0.160811
3	0	50247.3	-0.170814
3	0	50248.3	-0.180829
3	0	50249.2	-0.190851
3	0	50250.3	-0.200896
3	0	50251.3	-0.210914
3	0	50252.5	-0.220918
3	0	50253.6	-0.230951
3	0	50254.9	-0.240958
3	0	50256.3	-0.250965
3	0	50257.9	-0.260969
3	0	50259.7	-0.270979
3	0	50261.9	-0.280987
3	0	50264.6	-0.29099
3	0	50268.3	-0.300997
3	0	50273.6	-0.311004
3	0	50281.6	-0.321022
3	0	50294.7	-0.331029
3	0	50318.2	-0.341032
3	0	50348.2	-0.347977
3	0	50378.2	-0.352448
3	0	50408.2	-0.355667
3	0	50438.2	-0.358114
3	0	50468.2	-0.360145
3	0	50498.2	-0.361886
3	0	50528.2	-0.363349
3	0	50558.2	-0.364723
3	0	50588.2	-0.365823
3	0	50618.2	-0.366865
3	0	50648.2	-0.367865
3	0	50678.2	-0.368774
3	0	50708.2	-0.369564
3	0	50738.2	-0.370351
3	0	50768.2	-0.371095
3	0	50798.2	-0.371676
3	0	50828.2	-0.372359
3	0	50858.2	-0.372978
3	0	50888.2	-0.373547
3	0	50918.2	-0.374047
3	0	50948.2	-0.374555
3	0	50978.2	-0.374994
3	0	51008.2	-0.375417
3	0	51038.2	-0.375811
3	0	51068.2	-0.376269
3	0	51098.2	-0.376601
3	0	51128.2	-0.37696
3	0	51158.2	-0.377311
3	0	51188.2	-0.377724
3	0	51218.2	-0.377983
3	0	51248.2	-0.378342
3	0	51278.2	-0.378575
3	0	51308.2	-0.378865
3	0	51338.2	-0.379155
3	0	51368.2	-0.379415
3	0	51398.2	-0.379724
3	0	51428.2	-0.379896
3	0	51458.2	-0.380125
3	0	51488.2	-0.380389
3	0	51518.2	-0.380621
3	0	51548.2	-0.380812
3	0	51578.2	-0.381007
3	0	51608.2	-0.381198
3	0	51638.2	-0.381358
3	0	51668.2	-0.38158
3	0	51698.2	-0.381771
3	0	51728.2	-0.381981
3	0	51758.2	-0.382152
3	0	51788.2	-0.382294
3	0	51818.2	-0.382504
3	0	51848.2	-0.382691
3	0	51878.2	-0.382821
3	0	51908.2	-0.382943
3	0	51938.2	-0.383092
3	0	51968.2	-0.383286
3	0	51998.2	-0.383355
3	0	52028.2	-0.383554
3	0	52058.2	-0.383699
3	0	52088.2	-0.383821
3	0	52118.2	-0.383916
3	0	52148.2	-0.384035
3	0	52178.2	-0.384161
3	0	52208.2	-0.384336
3	0	52238.2	-0.384424
3	0	52268.2	-0.384428
3	0	52298.2	-0.384585
3	0	52328.2	-0.384707
3	0	52358.2	-0.384775
3	0	52388.2	-0.38484
3	0	52418.2	-0.384917
3	0	52448.2	-0.385031
3	0	52478.2	-0.3851
3	0	52508.2	-0.385215
3	0	52538.2	-0.385279
3	0	52568.2	-0.38536
3	0	52598.2	-0.38547
3	0	52628.2	-0.385547
3	0	52658.2	-0.385592
3	0	52688.2	-0.385699
3	0	52718.2	-0.385738
3	0	52748.2	-0.385749
3	0	52778.2	-0.385833
3	0	52808.2	-0.385951
3	0	52838.2	-0.385986
3	0	52868.2	-0.386016
3	0	52898.2	-0.386077
3	0	52928.2	-0.38615
3	0	52958.2	-0.386242
3	0	52988.2	-0.386272
3	0	53018.2	-0.386284
3	0	53048.2	-0.386371
3	0	53078.2	-0.386516
3	0	53108.2	-0.386551
3	0	53138.2	-0.386631
3	0	53168.2	-0.386665
3	0	53198.2	-0.386742
3	0	53228.2	-0.386788
3	0	53258.2	-0.386841
3	0	53288.2	-0.386906
3	0	53318.2	-0.386929
3	0	53348.2	-0.386994
3	0	53378.2	-0.387032
3	0	53408.2	-0.387131
3	0	53438.2	-0.387192
3	0	53468.2	-0.38723
3	0	53498.2	-0.387303
3	0	53528.2	-0.387364
3	0	53558.2	-0.387318
3	0	53588.2	-0.387406
3	0	53618.2	-0.387452
3	0	53648.2	-0.387425
3	0	53678.2	-0.387475
3	0	53708.2	-0.387509
3	0	53738.2	-0.387528
3	0	53768.2	-0.387547
3	0	53798.2	-0.387543
3	0	53828.2	-0.387616
3	0	53858.2	-0.387654
3	0	53888.2	-0.387635
3	0	53918.2	-0.387669
3	0	53948.2	-0.387757
3	0	53978.2	-0.387761
3	0	54008.2	-0.387788
3	0	54038.2	-0.387822
3	0	54068.2	-0.387841
3	0	54098.2	-0.387834
3	0	54128.2	-0.387876
3	0	54158.2	-0.387891
3	0	54188.2	-0.387899
3	0	54218.2	-0.387853
3	0	54248.2	-0.387944
3	0	54278.2	-0.387998
3	0	54308.2	-0.388002
3	0	54338.2	-0.388044
3	0	54368.2	-0.38804
3	0	54398.2	-0.388109
3	0	54428.2	-0.388112
3	0	54458.2	-0.388089
3	0	54488.2	-0.388086
3	0	54518.2	-0.38812
3	0	54548.2	-0.388101
3	0	54578.2	-0.388116
3	0	54608.2	-0.388128
3	0	54638.2	-0.388124
3	0	54668.2	-0.388143
3	0	54698.2	-0.388181
3	0	54728.2	-0.3882
3	0	54758.2	-0.388257
3	0	54788.2	-0.388277
3	0	54818.2	-0.38828
3	0	54848.2	-0.388311
3	0	54878.2	-0.388383
3	0	54908.2	-0.388399
3	0	54938.2	-0.388387
3	0	54968.2	-0.388433
3	0	54998.2	-0.388429
3	0	55028.2	-0.38841
3	0	55058.2	-0.388425
3	0	55088.2	-0.388445
3	0	55118.2	-0.388395
3	0	55148.2	-0.388445
3	0	55178.2	-0.388498
3	0	55208.2	-0.388544
3	0	55238.2	-0.388529
3	0	55268.2	-0.38859
3	0	55298.2	-0.388613
3	0	55328.2	-0.388613
3	0	55358.2	-0.38867
3	0	55388.2	-0.388643
3	0	55418.2	-0.388685
3	0	55448.2	-0.388662
3	0	55478.2	-0.388685
3	0	55508.2	-0.388719
3	0	55538.2	-0.38867
3	0	55568.2	-0.388643
3	0	55598.2	-0.388662
3	0	55628.2	-0.388616
3	0	55658.2	-0.388639
3	0	55688.2	-0.388685
3	0	55718.2	-0.388712
3	0	55748.2	-0.38875
3	0	55778.2	-0.38875
3	0	55808.2	-0.388784
3	0	55838.2	-0.388761
3	0	55868.2	-0.388754
3	0	55898.2	-0.388773
3	0	55928.2	-0.388826
3	0	55958.2	-0.3888
3	0	55988.2	-0.388803
3	0	56018.2	-0.388765
3	0	56048.2	-0.388815
3	0	56078.2	-0.388819
3	0	56108.2	-0.388861
3	0	56138.2	-0.388803
3	0	56168.2	-0.388895
3	0	56198.2	-0.388891
3	0	56228.2	-0.388964
3	0	56258.2	-0.388903
3	0	56288.2	-0.388956
3	0	56318.2	-0.388968
3	0	56348.2	-0.388937
3	0	56378.2	-0.388933
3	0	56408.2	-0.388907
3	0	56438.2	-0.388918
3	0	56468.2	-0.388914
3	0	56498.2	-0.38891
3	0	56528.2	-0.388884
3	0	56558.2	-0.388895
3	0	56588.2	-0.388933
3	0	56618.2	-0.388926
3	0	56648.2	-0.388937
3	0	56678.2	-0.388945
3	0	56708.2	-0.388948
3	0	56738.2	-0.388937
3	0	56768.2	-0.388948
3	0	56798.2	-0.388903
3	0	56828.2	-0.388903
3	0	56858.2	-0.38891
3	0	56888.2	-0.388948
3	0	56918.2	-0.388937
3	0	56948.2	-0.38891
3	0	56978.2	-0.388884
3	0	57008.2	-0.388819
3	0	57038.2	-0.388899
3	0	57068.2	-0.388918
3	0	57098.2	-0.388842
3	0	57128.2	-0.388834
3	0	57158.2	-0.388868
3	0	57188.2	-0.388891
3	0	57218.2	-0.388857
3	0	57248.2	-0.38888
3	0	57278.2	-0.388834
3	0	57308.2	-0.388865
3	0	57338.2	-0.388903
3	0	57368.2	-0.388887
3	0	57398.2	-0.388899
3	0	57428.2	-0.388815
3	0	57458.2	-0.388842
3	0	57488.2	-0.388868
3	0	57518.2	-0.388823
3	0	57548.2	-0.388796
3	0	57578.2	-0.388803
3	0	57608.2	-0.388834
3	0	57638.2	-0.388887
3	0	57668.2	-0.388826
3	0	57698.2	-0.388899
3	0	57728.2	-0.388842
3	0	57758.2	-0.388826
3	0	57788.2	-0.388819
3	0	57818.2	-0.388838
3	0	57848.2	-0.388826
3	0	57878.2	-0.388823
3	0	57908.2	-0.388914
3	0	57938.2	-0.388857
3	0	57968.2	-0.388872
3	0	57998.2	-0.38891
3	0	58028.2	-0.388926
3	0	58058.2	-0.388872
3	0	58088.2	-0.388968
3	0	58118.2	-0.388903
3	0	58148.2	-0.388922
3	0	58178.2	-0.38891
3	0	58208.2	-0.388903
3	0	58238.2	-0.388918
3	0	58268.2	-0.388918
3	0	58298.2	-0.388941
3	0	58328.2	-0.388907
3	0	58358.2	-0.388933
3	0	58388.2	-0.388975
3	0	58418.2	-0.388952
3	0	58448.2	-0.388929
3	0	58478.2	-0.38896
3	0	58508.2	-0.388949
3	0	58538.2	-0.388929
3	0	58568.2	-0.388933
3	0	58598.2	-0.388956
3	0	58628.2	-0.388945
3	0	58658.2	-0.388922
3	0	58688.2	-0.388891
3	0	58718.2	-0.388922
3	0	58748.2	-0.388914
3	0	58778.2	-0.388918
3	0	58808.2	-0.388884
3	0	58838.2	-0.388865
3	0	58868.2	-0.38883
3	0	58898.2	-0.388895
3	0	58928.2	-0.388903
3	0	58958.2	-0.388907
3	0	58988.2	-0.388865
3	0	59018.2	-0.388907
3	0	59048.2	-0.388884
3	0	59078.2	-0.388819
3	0	59108.2	-0.388819
3	0	59138.2	-0.388739
3	0	59168.2	-0.388742
3	0	59198.2	-0.38875
3	0	59228.2	-0.388712
3	0	59258.2	-0.388677
3	0	59288.2	-0.388681
3	0	59318.2	-0.388739
3	0	59348.2	-0.388681
3	0	59378.2	-0.388681
3	0	59408.2	-0.388697
3	0	59438.2	-0.388697
3	0	59468.2	-0.388689
3	0	59498.2	-0.388685
3	0	59528.2	-0.388681
3	0	59558.2	-0.388685
3	0	59588.2	-0.388666
3	0	59618.2	-0.388632
3	0	59648.2	-0.388666
3	0	59678.2	-0.388609
3	0	59708.2	-0.38862
3	0	59738.2	-0.388578
3	0	59768.2	-0.388555
3	0	59798.2	-0.388571
3	0	59828.2	-0.388551
3	0	59858.2	-0.388506
3	0	59888.2	-0.388563
3	0	59918.2	-0.38854
3	0	59948.2	-0.388502
3	0	59978.2	-0.388506
3	0	60008.2	-0.388509
3	0	60038.2	-0.388433
3	0	60068.2	-0.388399
3	0	60098.2	-0.388368
3	0	60128.2	-0.38838
3	0	60158.2	-0.388338
3	0	60188.2	-0.388338
3	0	60218.2	-0.388341
3	0	60248.2	-0.388315
3	0	60278.2	-0.388257
3	0	60308.2	-0.38828
3	0	60338.2	-0.388315
3	0	60368.2	-0.388303
3	0	60398.2	-0.388277
3	0	60428.2	-0.388311
3	0	60458.2	-0.388311
3	0	60488.2	-0.388265
3	0	60518.2	-0.388311
3	0	60548.2	-0.388299
3	0	60578.2	-0.388185
3	0	60608.2	-0.3882
3	0	60638.2	-0.388223
3	0	60668.2	-0.388196
3	0	60698.2	-0.388173
3	0	60728.2	-0.388181
3	0	60758.2	-0.388151
3	0	60788.2	-0.388135
3	0	60818.2	-0.388147
3	0	60848.2	-0.388208
3	0	60878.2	-0.388177
3	0	60908.2	-0.388177
3	0	60938.2	-0.38817
3	0	60968.2	-0.388212
3	0	60998.2	-0.388147
3	0	61028.2	-0.388139
3	0	61058.2	-0.388147
3	0	61088.2	-0.388047
3	0	61118.2	-0.388067
3	0	61148.2	-0.388055
3	0	61178.2	-0.388055
3	0	61208.2	-0.388009
3	0	61238.2	-0.38799
3	0	61268.2	-0.388009
3	0	61298.2	-0.388009
3	0	61328.2	-0.388025
3	0	61358.2	-0.387998
3	0	61388.2	-0.387983
3	0	61418.2	-0.388009
3	0	61448.2	-0.387986
3	0	61478.2	-0.387994
3	0	61508.2	-0.387994
3	0	61538.2	-0.388017
3	0	61568.2	-0.387986
3	0	61598.2	-0.387895
3	0	61628.2	-0.387899
3	0	61658.2	-0.387918
3	0	61688.2	-0.387868
3	0	61718.2	-0.387899
3	0	61748.2	-0.387845
3	0	61778.2	-0.387868
3	0	61808.2	-0.387876
3	0	61838.2	-0.387864
3	0	61868.2	-0.387906
3	0	61898.2	-0.387799
3	0	61928.2	-0.387876
3	0	61958.2	-0.387902
3	0	61988.2	-0.387845
3	0	62018.2	-0.387921
3	0	62048.2	-0.387857
3	0	62078.2	-0.387811
3	0	62108.2	-0.387803
3	0	62138.2	-0.387795
3	0	62168.2	-0.387807
3	0	62198.2	-0.387815
3	0	62228.2	-0.387784
3	0	62258.2	-0.387799
3	0	62288.2	-0.387887
3	0	62318.2	-0.387895
3	0	62348.2	-0.387849
3	0	62378.2	-0.387822
3	0	62408.2	-0.387799
3	0	62438.2	-0.387769
3	0	62468.2	-0.38775
3	0	62498.2	-0.38775
3	0	62528.2	-0.387727
3	0	62558.2	-0.387666
3	0	62588.2	-0.387643
3	0	62618.2	-0.387616
3	0	62648.2	-0.387624
3	0	62678.2	-0.387574
3	0	62708.2	-0.387589
3	0	62738.2	-0.387647
3	0	62768.2	-0.387555
3	0	62798.2	-0.387574
3	0	62828.2	-0.387536
3	0	62858.2	-0.387532
3	0	62888.2	-0.387505
3	0	62918.2	-0.387452
3	0	62948.2	-0.387513
3	0	62978.2	-0.387433
3	0	63008.2	-0.387425
3	0	63038.2	-0.387372
3	0	63068.2	-0.387364
3	0	63098.2	-0.387303
3	0	63128.2	-0.387349
3	0	63158.2	-0.387345
3	0	63188.2	-0.387288
3	0	63218.2	-0.387223
3	0	63248.2	-0.387318
3	0	63278.2	-0.38725
3	0	63308.2	-0.387204
3	0	63338.2	-0.38723
3	0	63368.2	-0.387219
3	0	63398.2	-0.387169
3	0	63428.2	-0.387089
3	0	63458.2	-0.387127
3	0	63488.2	-0.387047
3	0	63518.2	-0.38702
3	0	63548.2	-0.38699
3	0	63578.2	-0.386963
3	0	63608.2	-0.386978
3	0	63638.2	-0.386929
3	0	63668.2	-0.386891
3	0	63698.2	-0.386929
3	0	63728.2	-0.386879
3	0	63758.2	-0.386914
3	0	63788.2	-0.38686
3	0	63818.2	-0.386875
3	0	63848.2	-0.386837
3	0	63878.2	-0.38681
3	0	63908.2	-0.386833
3	0	63938.2	-0.386807
3	0	63968.2	-0.386803
3	0	63998.2	-0.386772
3	0	64028.2	-0.386757
3	0	64058.2	-0.386772
3	0	64088.2	-0.386761
3	0	64118.2	-0.386749
3	0	64148.2	-0.386742
3	0	64178.2	-0.386768
3	0	64208.2	-0.386768
3	0	64238.2	-0.386765
3	0	64268.2	-0.386795
3	0	64298.2	-0.386788
3	0	64328.2	-0.386803
3	0	64358.2	-0.386765
3	0	64388.2	-0.386807
3	0	64418.2	-0.3867
3	0	64448.2	-0.386677
3	0	64478.2	-0.386654
3	0	64508.2	-0.386604
3	0	64538.2	-0.386581
3	0	64568.2	-0.386612
3	0	64598.2	-0.386581
3	0	64628.2	-0.386555
3	0	64658.2	-0.386578
3	0	64688.2	-0.386543
3	0	64718.2	-0.386528
3	0	64748.2	-0.386555
3	0	64778.2	-0.386543
3	0	64808.2	-0.386536
3	0	64838.2	-0.386547
3	0	64868.2	-0.386532
3	0	64898.2	-0.386501
3	0	64928.2	-0.386474
3	0	64958.2	-0.386425
3	0	64988.2	-0.386432
3	0	65018.2	-0.386352
3	0	65048.2	-0.386352
3	0	65078.2	-0.386326
3	0	65108.2	-0.386364
3	0	65138.2	-0.386314
3	0	65168.2	-0.386326
3	0	65198.2	-0.386352
3	0	65228.2	-0.386333
3	0	65258.2	-0.386379
3	0	65288.2	-0.386379
3	0	65318.2	-0.38639
3	0	65348.2	-0.386345
3	0	65378.2	-0.386253
3	0	65408.2	-0.386264
3	0	65438.2	-0.38623
3	0	65468.2	-0.386222
3	0	65498.2	-0.38618
3	0	65528.2	-0.386161
3	0	65558.2	-0.386123
3	0	65588.2	-0.386108
3	0	65618.2	-0.386096
3	0	65648.2	-0.386077
3	0	65678.2	-0.386039
3	0	65708.2	-0.386024
3	0	65738.2	-0.386032
3	0	65768.2	-0.386035
3	0	65798.2	-0.386039
3	0	65828.2	-0.386016
3	0	65858.2	-0.386028
3	0	65888.2	-0.38607
3	0	65918.2	-0.386051
3	0	65948.2	-0.386005
3	0	65978.2	-0.386035
3	0	66008.2	-0.38597
3	0	66038.2	-0.385951
3	0	66068.2	-0.385917
3	0	66098.2	-0.385898
3	0	66128.2	-0.385864
3	0	66158.2	-0.385825
3	0	66188.2	-0.385852
3	0	66218.2	-0.385856
3	0	66248.2	-0.38581
3	0	66278.2	-0.385818
3	0	66308.2	-0.385818
3	0	66338.2	-0.385787
3	0	66368.2	-0.385806
3	0	66398.2	-0.385791
3	0	66428.2	-0.385772
3	0	66458.2	-0.385764
3	0	66488.2	-0.385738
3	0	66518.2	-0.385715
3	0	66548.2	-0.385718
3	0	66578.2	-0.385718
3	0	66608.2	-0.385661
3	0	66638.2	-0.385654
3	0	66668.2	-0.385692
3	0	66698.2	-0.385665
3	0	66728.2	-0.38568
3	0	66758.2	-0.385619
3	0	66788.2	-0.385615
3	0	66818.2	-0.385592
3	0	66848.2	-0.385592
3	0	66878.2	-0.3856
3	0	66908.2	-0.385535
3	0	66938.2	-0.385482
3	0	66968.2	-0.385482
3	0	66998.2	-0.385463
3	0	67028.2	-0.385413
3	0	67058.2	-0.385386
3	0	67088.2	-0.385405
3	0	67118.2	-0.385333
3	0	67148.2	-0.385314
3	0	67178.2	-0.385226
3	0	67208.2	-0.385321
3	0	67238.2	-0.385279
3	0	67268.2	-0.385279
3	0	67298.2	-0.385272
3	0	67328.2	-0.385237
3	0	67358.2	-0.385249
3	0	67388.2	-0.38523
3	0	67418.2	-0.385142
3	0	67448.2	-0.385172
3	0	67478.2	-0.385226
3	0	67508.2	-0.385138
3	0	67538.2	-0.385092
3	0	67568.2	-0.385111
3	0	67598.2	-0.385016
3	0	67628.2	-0.384962
3	0	67658.2	-0.385031
3	0	67688.2	-0.385008
3	0	67718.2	-0.384978
3	0	67748.2	-0.385035
3	0	67778.2	-0.384974
3	0	67808.2	-0.384943
3	0	67838.2	-0.384989
3	0	67868.2	-0.384955
3	0	67898.2	-0.384924
3	0	67928.2	-0.384924
3	0	67958.2	-0.384901
3	0	67988.2	-0.38489
3	0	68018.2	-0.384863
3	0	68048.2	-0.384856
3	0	68078.2	-0.384817
3	0	68108.2	-0.384791
3	0	68138.2	-0.384775
3	0	68168.2	-0.384768
3	0	68198.2	-0.384688
3	0	68228.2	-0.384726
3	0	68235.3	-0.384718