File: data_dir/1540_A_02_CV_C04.mpt
EC-Lab ASCII FILE
Nb header lines : 62

Cyclic Voltammetry

Run on channel : 4 (SN 13148)
User :
Electrode connection : standard
Potential control : Ewe
Ewe ctrl range : min = -1.00 V, max = 1.00 V
Ewe,I filtering : 5 Hz
Safety Limits :
	Do not start on E overload
Channel : Floating
Acquisition started on : 06/24/2024 21:42:04.718
Loaded Setting File :  NONE
Saved on :
	File : 1540_A_02_CV_C04.mpr
	Directory : C:\Users\mAtsuhitA\Desktop\Oyafuso\20240624_???????4\
	Host : 192.109.209.100
Device : VSP-300 (SN 0960)
Address : USB
EC-Lab for windows v11.50 (software)
Internet server v11.50 (firmware)
Command interpretor v11.50 (firmware)
Electrode material :
Initial state :
Electrolyte :
Comments :
Cable : standard
Electrode surface area : 0.001 cm2
Characteristic mass : 0.001 g
Equivalent Weight : 0.000 g/eq.
Density : 0.000 g/cm3
Volume (V) : 0.001 cm3
Text export
   Mode : Standard
   Time format : Elapsed
Cycle Definition : Charge/Discharge alternance
Ei (V)              0.000
vs.                 Eoc
dE/dt               10.000
dE/dt unit          mV/s
E1 (V)              -0.050
vs.                 Eoc
Step percent        50
N                   10
E range min (V)     -1.000
E range max (V)     1.000
I Range             Auto
I Range min         Unset
I Range max         Unset
I Range init        Unset
Bandwidth           8
E2 (V)              0.000
vs.                 Ref
nc cycles           2
Reverse Scan        1
Ef (V)              0.000
vs.                 Eoc

mode	ox/red	error	control changes	counter inc.	time/s	control/V	Ewe/V	<I>/mA	cycle number	(Q-Qo)/C	I Range	step time/s	P/W
2	0	0	1	0	7200.86	-0.467931	-0.46705	-0.000485882	1	0.0000000E+000	43	7200.86	2.26931e-07
2	0	0	1	0	7201.38	-0.473203	-0.472375	-0.000472589	1	-2.50453e-07	43	7201.38	2.2324e-07
2	0	0	1	0	7201.93	-0.4787	-0.477875	-0.000486161	1	-5.13218e-07	43	7201.93	2.32324e-07
2	0	0	1	0	7202.48	-0.484197	-0.483356	-0.000506818	1	-7.85828e-07	43	7202.48	2.44974e-07
2	0	0	1	0	7203.03	-0.489694	-0.488869	-0.000530559	1	-1.07079e-06	43	7203.03	2.59374e-07
2	0	0	1	0	7203.58	-0.495191	-0.494356	-0.000556236	1	-1.36963e-06	43	7203.58	2.74979e-07
2	0	0	1	0	7204.13	-0.500689	-0.499862	-0.000582616	1	-1.68263e-06	43	7204.13	2.91227e-07
2	0	0	1	0	7204.68	-0.506185	-0.505372	-0.00060889	1	-2.01017e-06	43	7204.68	3.07716e-07
2	0	0	1	0	7205.18	-0.508634	-0.509433	-0.000568746	1	-2.31842e-06	43	7205.18	2.89738e-07
2	0	0	1	0	7205.73	-0.503137	-0.50389	-0.000379361	1	-2.56296e-06	43	7205.73	1.91156e-07
2	0	0	1	0	7206.28	-0.49764	-0.498408	-0.000302432	1	-2.74894e-06	43	7206.28	1.50734e-07
2	0	0	1	0	7206.83	-0.492143	-0.492883	-0.000244397	1	-2.89849e-06	43	7206.83	1.20459e-07
2	0	0	1	0	7207.38	-0.486646	-0.487398	-0.000197044	1	-3.01951e-06	43	7207.38	9.6039e-08
2	0	0	1	0	7207.93	-0.481149	-0.481927	-0.000156038	1	-3.11631e-06	43	7207.93	7.51988e-08
2	0	0	1	0	7208.48	-0.475652	-0.476409	-0.000118553	1	-3.19162e-06	43	7208.48	5.64797e-08
2	0	0	1	0	7209.03	-0.470155	-0.470911	-8.34925e-05	1	-3.24708e-06	43	7209.03	3.93176e-08
2	0	0	1	0	7209.58	-0.464658	-0.465425	-5.03241e-05	1	-3.28385e-06	43	7209.58	2.34221e-08
2	1	0	1	0	7211.33	-0.447167	-0.447926	5.11889e-05	1	-3.29627e-06	44	0.5497	-2.29288e-08
2	1	0	1	0	7211.88	-0.44167	-0.442443	8.29817e-05	1	-3.25937e-06	44	1.0995	-3.67146e-08
2	1	0	1	0	7212.83	-0.432175	-0.432935	0.000139404	1	-3.15874e-06	43	2.0489	-6.03531e-08
2	1	0	1	0	7213.38	-0.426679	-0.427452	0.000172503	1	-3.073e-06	43	2.5986	-7.37369e-08
2	1	0	1	0	7213.93	-0.421181	-0.421942	0.000207237	1	-2.96858e-06	43	3.1483	-8.74418e-08
2	1	0	1	0	7214.48	-0.415684	-0.416445	0.0002427	1	-2.84483e-06	43	3.6981	-1.01071e-07
2	1	0	1	0	7215.03	-0.410187	-0.410929	0.000280412	1	-2.70107e-06	43	4.2477	-1.15229e-07
2	1	0	1	0	7215.58	-0.40469	-0.405442	0.000318662	1	-2.53644e-06	43	4.7975	-1.29199e-07
2	1	0	1	0	7216.13	-0.399193	-0.399955	0.000358698	1	-2.35033e-06	43	5.3471	-1.43463e-07
2	1	0	1	0	7216.67	-0.393696	-0.394455	0.000400532	1	-2.14159e-06	43	5.8969	-1.57992e-07
2	1	0	1	0	7217.22	-0.388199	-0.388962	0.000444438	1	-1.9094e-06	43	6.4465	-1.72869e-07
2	1	0	1	0	7217.77	-0.382702	-0.383454	0.000489703	1	-1.65262e-06	43	6.9963	-1.87778e-07
2	1	0	1	0	7218.32	-0.377205	-0.377962	0.000537699	1	-1.37034e-06	43	7.5459	-2.0323e-07
2	1	0	1	0	7218.87	-0.371708	-0.372467	0.000586564	1	-1.06127e-06	43	8.0957	-2.18476e-07
2	1	0	1	0	7219.42	-0.366211	-0.366953	0.000638801	1	-7.24477e-07	43	8.6453	-2.3441e-07
2	1	0	1	0	7219.97	-0.360714	-0.361443	0.000693326	1	-3.58362e-07	43	9.1951	-2.50598e-07
2	1	0	1	0	7220.52	-0.355217	-0.355964	0.000749472	1	3.79848e-08	43	9.7447	-2.66785e-07
2	1	0	1	0	7221.07	-0.34972	-0.350481	0.00080834	1	4.66215e-07	43	10.2945	-2.83308e-07
2	1	0	1	0	7221.62	-0.344223	-0.344981	0.000870322	1	9.27294e-07	43	10.8441	-3.00245e-07
2	1	0	1	0	7222.17	-0.338726	-0.339468	0.000933168	1	1.42288e-06	43	11.3939	-3.1678e-07
2	1	0	1	0	7222.72	-0.333229	-0.333943	0.000999236	1	1.95399e-06	43	11.9435	-3.33688e-07
2	1	0	1	0	7223.27	-0.327732	-0.32848	0.00106764	1	2.52231e-06	43	12.4933	-3.50697e-07
2	1	0	1	0	7224.22	-0.318237	-0.319022	0.00119461	1	3.58574e-06	42	13.4427	-3.81106e-07
2	1	0	1	0	7224.77	-0.31274	-0.313532	0.00126769	1	4.26233e-06	42	13.9925	-3.97462e-07
2	1	0	1	0	7225.32	-0.307243	-0.308016	0.00134401	1	4.97988e-06	42	14.5421	-4.13976e-07
2	1	0	1	0	7225.87	-0.301746	-0.302524	0.00142418	1	5.74091e-06	42	15.0919	-4.30849e-07
2	1	0	1	0	7226.42	-0.296249	-0.297033	0.00150656	1	6.5462e-06	42	15.6415	-4.47499e-07
2	1	0	1	0	7226.97	-0.290752	-0.291519	0.00159024	1	7.3977e-06	42	16.1913	-4.63585e-07
2	1	0	1	0	7227.52	-0.285255	-0.286042	0.0016775	1	8.29546e-06	42	16.7409	-4.79836e-07
2	1	0	1	0	7228.07	-0.279757	-0.280529	0.00176509	1	9.24186e-06	42	17.2907	-4.9516e-07
2	1	0	1	0	7228.62	-0.27426	-0.275023	0.00185549	1	1.02368e-05	42	17.8403	-5.10303e-07
2	1	0	1	0	7229.17	-0.268763	-0.269557	0.00194716	1	1.12825e-05	42	18.3901	-5.24871e-07
2	1	0	1	0	7229.72	-0.263266	-0.26406	0.00204276	1	1.23796e-05	42	18.9398	-5.39413e-07
2	1	0	1	0	7230.27	-0.257769	-0.258547	0.00214007	1	1.35289e-05	42	19.4895	-5.53307e-07
2	1	0	1	0	7230.82	-0.252272	-0.253063	0.00223495	1	1.47313e-05	42	20.0392	-5.65582e-07
2	1	0	1	0	7231.37	-0.246775	-0.247569	0.00233485	1	1.59878e-05	42	20.5889	-5.78035e-07
2	1	0	1	0	7231.92	-0.241278	-0.242062	0.00243922	1	1.73001e-05	42	21.1386	-5.90441e-07
2	1	0	1	0	7232.47	-0.235781	-0.236569	0.00253837	1	1.86683e-05	42	21.6883	-6.005e-07
2	1	0	1	0	7233.02	-0.230285	-0.23107	0.00264471	1	2.00931e-05	42	22.238	-6.11114e-07
2	1	0	1	0	7233.57	-0.224787	-0.225566	0.0027493	1	2.15759e-05	42	22.7877	-6.2015e-07
2	1	0	1	0	7234.12	-0.21929	-0.220068	0.00285728	1	2.3117e-05	42	23.3375	-6.28797e-07
2	1	0	1	0	7234.67	-0.213793	-0.21458	0.00296635	1	2.47169e-05	42	23.8871	-6.3652e-07
2	1	0	1	0	7235.21	-0.208296	-0.209086	0.0030742	1	2.63765e-05	42	24.4369	-6.42772e-07
2	1	0	1	0	7235.76	-0.202799	-0.203582	0.00318183	1	2.80958e-05	42	24.9865	-6.47764e-07
2	1	0	1	0	7236.31	-0.197302	-0.198109	0.00329274	1	2.98758e-05	42	25.5363	-6.52321e-07
2	1	0	1	0	7236.86	-0.191805	-0.192612	0.00340418	1	3.17163e-05	42	26.0859	-6.55687e-07
2	1	0	1	0	7237.41	-0.186308	-0.187092	0.00351574	1	3.36189e-05	42	26.6357	-6.57766e-07
2	1	0	1	0	7237.96	-0.180811	-0.181605	0.00363223	1	3.55823e-05	42	27.1853	-6.59632e-07
2	1	0	1	0	7238.51	-0.175314	-0.176111	0.00374373	1	3.76092e-05	42	27.7351	-6.59312e-07
2	1	0	1	0	7239.06	-0.169817	-0.170609	0.00385767	1	3.96975e-05	42	28.2847	-6.58154e-07
2	1	0	1	0	7239.61	-0.16432	-0.165116	0.00397269	1	4.18496e-05	42	28.8345	-6.55954e-07
2	1	0	1	0	7240.16	-0.158823	-0.159608	0.00408816	1	4.40651e-05	42	29.3841	-6.52504e-07
2	1	0	1	0	7240.71	-0.153326	-0.154143	0.00420587	1	4.63456e-05	42	29.9339	-6.48306e-07
2	1	0	1	0	7241.26	-0.147829	-0.14865	0.00432187	1	4.86894e-05	42	30.4835	-6.42445e-07
2	1	0	1	0	7241.81	-0.142332	-0.143122	0.0044381	1	5.10982e-05	42	31.0333	-6.35189e-07
2	1	0	1	0	7242.36	-0.136835	-0.137637	0.00455405	1	5.35692e-05	42	31.5829	-6.26807e-07
2	1	0	1	0	7242.91	-0.131338	-0.132118	0.00467277	1	5.61058e-05	42	32.1327	-6.17355e-07
2	1	0	1	0	7243.46	-0.125841	-0.126637	0.00478937	1	5.87047e-05	42	32.6823	-6.06513e-07
2	1	0	1	0	7244.01	-0.120343	-0.12116	0.00490252	1	6.13697e-05	42	33.2321	-5.93989e-07
2	1	0	1	0	7244.56	-0.114846	-0.115675	0.00501925	1	6.40961e-05	42	33.7817	-5.80603e-07
2	1	0	1	0	7245.11	-0.109349	-0.110158	0.00513543	1	6.68878e-05	42	34.3315	-5.65709e-07
2	1	0	1	0	7245.66	-0.103852	-0.104647	0.00525061	1	6.97426e-05	42	34.8811	-5.49462e-07
2	1	0	1	0	7246.21	-0.0983554	-0.0991286	0.00536696	1	7.26617e-05	42	35.4309	-5.32019e-07
2	1	0	1	0	7246.76	-0.0928579	-0.0936455	0.00547878	1	7.56442e-05	42	35.9806	-5.13063e-07
2	1	0	1	0	7247.31	-0.0873613	-0.0881567	0.00559538	1	7.86883e-05	42	36.5303	-4.9327e-07
2	1	0	1	0	7247.86	-0.0818643	-0.0826697	0.00570966	1	8.17949e-05	42	37.08	-4.72016e-07
2	1	0	1	0	7248.41	-0.0763672	-0.0771686	0.00581934	1	8.49643e-05	42	37.6297	-4.4907e-07
2	1	0	1	0	7248.96	-0.0708709	-0.0716746	0.00593621	1	8.81946e-05	42	38.1794	-4.25475e-07
2	1	0	1	0	7249.51	-0.0653731	-0.0661808	0.00603946	1	9.1486e-05	42	38.7291	-3.99696e-07
2	1	0	1	0	7250.06	-0.0598761	-0.0606559	0.00615149	1	9.48387e-05	42	39.2789	-3.73124e-07
2	1	0	1	0	7250.61	-0.0543791	-0.0551563	0.00625885	1	9.82495e-05	42	39.8285	-3.45215e-07
2	1	0	1	0	7251.16	-0.048882	-0.0496588	0.00636624	1	0.00010172	42	40.3783	-3.1614e-07
2	1	0	1	0	7251.71	-0.043385	-0.0441689	0.00647228	1	0.000105246	42	40.9279	-2.85873e-07
2	1	0	1	0	7252.26	-0.037888	-0.0386862	0.00657078	1	0.000108832	42	41.4777	-2.54199e-07
2	1	0	1	0	7252.81	-0.0323909	-0.03319	0.00667673	1	0.000112472	42	42.0273	-2.216e-07
2	1	0	1	0	7253.36	-0.0268939	-0.0276922	0.00677665	1	0.00011617	42	42.5771	-1.8766e-07
2	1	0	1	0	7253.9	-0.0213969	-0.0222047	0.00686923	1	0.00011992	42	43.1267	-1.52529e-07
2	1	0	1	0	7254.45	-0.0158998	-0.0167233	0.00696778	1	0.000123725	42	43.6765	-1.16524e-07
2	1	0	1	0	7255	-0.0104028	-0.0111933	0.00706234	1	0.00012758	42	44.2261	-7.90509e-08
2	1	0	1	0	7255.55	-0.00490576	-0.00570003	0.00715144	1	0.000131486	42	44.7759	-4.07634e-08
2	1	0	0	1	7256.05	-1.65808e-05	-0.000744247	0.00723551	1	0.000135031	42	45.2686	-5.385e-09
2	1	0	1	1	7256.57	-0.00525557	-0.00438218	0.00688606	1	0.000138759	42	45.7957	-3.01759e-08
2	1	0	1	1	7257.12	-0.0107526	-0.00987461	0.00654554	1	0.000142448	42	46.3455	-6.46346e-08
2	1	0	1	1	7257.67	-0.0162496	-0.0153579	0.00624071	1	0.000145961	42	46.8951	-9.58443e-08
2	1	0	1	1	7258.22	-0.0217467	-0.0208542	0.0059642	1	0.000149315	42	47.4449	-1.24378e-07
2	1	0	1	1	7258.77	-0.0272437	-0.0263623	0.0057006	1	0.00015252	42	47.9945	-1.50281e-07
2	1	0	1	1	7259.32	-0.0327407	-0.0318534	0.00546682	1	0.000155588	42	48.5443	-1.74137e-07
2	1	0	1	1	7259.87	-0.0382378	-0.0373448	0.00523673	1	0.000158528	42	49.0939	-1.95565e-07
2	1	0	1	1	7260.42	-0.0437348	-0.042851	0.00502063	1	0.000161347	42	49.6437	-2.15139e-07
2	1	0	1	1	7260.97	-0.0492319	-0.0483727	0.0048206	1	0.00016405	42	50.1933	-2.33185e-07
2	1	0	1	1	7261.52	-0.0547289	-0.0538463	0.00462561	1	0.000166647	42	50.7431	-2.49072e-07
2	1	0	1	1	7262.07	-0.0602259	-0.0593287	0.00444382	1	0.000169138	42	51.2927	-2.63646e-07
2	1	0	1	1	7262.62	-0.065723	-0.06484	0.00427073	1	0.000171533	42	51.8425	-2.76914e-07
2	1	0	1	1	7263.17	-0.07122	-0.0703433	0.00410382	1	0.000173834	42	52.3921	-2.88676e-07
2	1	0	1	1	7263.72	-0.076717	-0.0758334	0.00394235	1	0.000176044	42	52.9419	-2.98962e-07
2	1	0	1	1	7264.27	-0.0822141	-0.0813141	0.00379113	1	0.00017817	42	53.4915	-3.08273e-07
2	1	0	1	1	7264.82	-0.0877111	-0.0868254	0.0036463	1	0.000180214	42	54.0413	-3.16592e-07
2	1	0	1	1	7265.37	-0.0932081	-0.0923088	0.00350695	1	0.000182179	42	54.5909	-3.23722e-07
2	1	0	1	1	7265.92	-0.0987052	-0.0978279	0.00336993	1	0.000184069	42	55.1407	-3.29674e-07
2	1	0	1	1	7266.47	-0.104203	-0.103304	0.00323857	1	0.000185885	42	55.6904	-3.34556e-07
2	1	0	1	1	7267.02	-0.109699	-0.108804	0.00311323	1	0.000187631	42	56.2401	-3.3873e-07
2	1	0	1	1	7267.57	-0.115196	-0.114298	0.0029939	1	0.000189309	42	56.7898	-3.42196e-07
2	1	0	1	1	7268.12	-0.120693	-0.119792	0.00287353	1	0.000190921	42	57.3395	-3.44226e-07
2	1	0	1	1	7268.67	-0.12619	-0.125257	0.00276423	1	0.000192471	42	57.8892	-3.46241e-07
2	1	0	1	1	7269.22	-0.131687	-0.130793	0.00265508	1	0.00019396	42	58.4389	-3.47266e-07
2	1	0	1	1	7269.77	-0.137184	-0.136256	0.00255065	1	0.000195389	42	58.9886	-3.47543e-07
2	1	0	1	1	7270.32	-0.142681	-0.141769	0.00244785	1	0.000196763	42	59.5383	-3.4703e-07
2	1	0	1	1	7270.87	-0.148178	-0.147257	0.00234955	1	0.000198081	42	60.0881	-3.45989e-07
2	1	0	1	1	7271.42	-0.153675	-0.152783	0.00225434	1	0.000199346	42	60.6377	-3.44425e-07
2	1	0	1	1	7271.97	-0.159173	-0.158244	0.00216186	1	0.00020056	42	61.1875	-3.42101e-07
2	1	0	1	1	7272.52	-0.16467	-0.163759	0.00207355	1	0.000201724	42	61.7371	-3.39563e-07
2	1	0	1	1	7273.06	-0.170167	-0.169259	0.00198764	1	0.00020284	42	62.2869	-3.36425e-07
2	1	0	1	1	7273.61	-0.175664	-0.174783	0.00190173	1	0.000203908	42	62.8365	-3.32391e-07
2	1	0	1	1	7274.16	-0.181161	-0.180265	0.00182141	1	0.000204932	42	63.3863	-3.28337e-07
2	1	0	1	1	7274.71	-0.186658	-0.185739	0.0017427	1	0.000205911	42	63.9359	-3.23688e-07
2	1	0	1	1	7275.26	-0.192155	-0.191228	0.00166593	1	0.000206848	42	64.4857	-3.18573e-07
2	1	0	1	1	7275.81	-0.197652	-0.196753	0.00159019	1	0.000207743	42	65.0353	-3.12876e-07
2	1	0	1	1	7276.36	-0.203149	-0.20224	0.00151892	1	0.000208598	42	65.5851	-3.07186e-07
2	1	0	1	1	7276.91	-0.208646	-0.207741	0.00144799	1	0.000209413	42	66.1347	-3.00807e-07
2	1	0	1	1	7277.46	-0.214143	-0.213222	0.0013816	1	0.00021019	42	66.6845	-2.94588e-07
2	1	0	1	1	7278.01	-0.21964	-0.218751	0.00131486	1	0.000210931	42	67.2341	-2.87627e-07
2	1	0	1	1	7278.56	-0.225137	-0.224238	0.00125164	1	0.000211636	42	67.7839	-2.80665e-07
2	1	0	1	1	7279.11	-0.230634	-0.229735	0.00118662	1	0.000212306	42	68.3335	-2.72609e-07
2	1	0	1	1	7279.66	-0.236131	-0.235223	0.0011266	1	0.000212943	42	68.8833	-2.65002e-07
2	1	0	1	1	7280.21	-0.241628	-0.240722	0.00106867	1	0.000213546	42	69.4329	-2.57252e-07
2	1	0	1	1	7280.76	-0.247125	-0.246221	0.00101069	1	0.000214118	42	69.9827	-2.48851e-07
2	1	0	1	1	7281.31	-0.252622	-0.251713	0.000954581	1	0.000214657	42	70.5323	-2.40281e-07
2	1	0	1	1	7281.86	-0.258119	-0.257213	0.000900089	1	0.000215167	42	71.0821	-2.31514e-07
2	1	0	1	1	7282.41	-0.263616	-0.262731	0.000846655	1	0.000215647	42	71.6317	-2.22442e-07
2	1	0	1	1	7282.96	-0.269113	-0.268214	0.000794581	1	0.000216098	42	72.1815	-2.13118e-07
2	1	0	1	1	7283.51	-0.274611	-0.273726	0.000743706	1	0.000216521	42	72.7312	-2.03572e-07
2	1	0	1	1	7284.06	-0.280107	-0.279202	0.000694869	1	0.000216916	42	73.2809	-1.94009e-07
2	1	0	1	1	7284.61	-0.285604	-0.284727	0.000646436	1	0.000217285	42	73.8306	-1.84058e-07
2	1	0	1	1	7285.16	-0.291101	-0.290215	0.000599167	1	0.000217627	42	74.3803	-1.73887e-07
2	1	0	1	1	7285.71	-0.296598	-0.29572	0.000552954	1	0.000217944	42	74.93	-1.63519e-07
2	1	0	1	1	7286.26	-0.302095	-0.301209	0.000507775	1	0.000218235	42	75.4797	-1.52946e-07
2	1	0	1	1	7286.81	-0.307592	-0.306718	0.000463607	1	0.000218502	42	76.0295	-1.42197e-07
2	1	0	1	1	7287.76	-0.317087	-0.316198	0.000391148	1	0.000218914	43	76.9789	-1.23681e-07
2	1	0	1	1	7288.31	-0.322584	-0.321681	0.0003496	1	0.000219118	43	77.5286	-1.1246e-07
2	1	0	1	1	7288.86	-0.328081	-0.327188	0.00030853	1	0.000219298	43	78.0783	-1.00948e-07
2	1	0	1	1	7289.41	-0.333578	-0.332671	0.00026821	1	0.000219457	43	78.628	-8.92258e-08
2	1	0	1	1	7289.96	-0.339076	-0.338165	0.000228282	1	0.000219593	43	79.1777	-7.71971e-08
2	1	0	1	1	7290.51	-0.344573	-0.343689	0.000189448	1	0.000219708	43	79.7275	-6.51111e-08
2	1	0	1	1	7291.06	-0.35007	-0.349193	0.000150934	1	0.000219802	43	80.2771	-5.27049e-08
2	1	0	1	1	7291.6	-0.355567	-0.354695	0.000113402	1	0.000219874	43	80.8269	-4.02231e-08
2	1	0	1	1	7292.15	-0.361064	-0.360171	7.59202e-05	1	0.000219926	43	81.3765	-2.73442e-08
2	1	0	1	1	7293.1	-0.370559	-0.369673	1.25736e-05	1	0.000219973	44	82.3261	-4.64812e-09
2	0	0	1	1	7293.65	-0.376056	-0.375186	-2.3687e-05	1	0.00021997	44	0.2998	8.88704e-09
2	0	0	1	1	7294.2	-0.381553	-0.380679	-5.94914e-05	1	0.000219947	44	0.8496	2.26471e-08
2	0	0	1	1	7294.75	-0.38705	-0.386203	-9.49023e-05	1	0.000219905	44	1.3992	3.66516e-08
2	0	0	1	1	7295.7	-0.396544	-0.395663	-0.000156028	1	0.00021979	43	2.3488	6.17343e-08
2	0	0	1	1	7296.25	-0.402042	-0.401172	-0.000190583	1	0.000219695	43	2.8984	7.64564e-08
2	0	0	1	1	7296.8	-0.407539	-0.406663	-0.000225325	1	0.000219581	43	3.4482	9.16314e-08
2	0	0	1	1	7297.35	-0.413036	-0.412198	-0.000259622	1	0.000219447	43	3.9978	1.07016e-07
2	0	0	1	1	7297.9	-0.418533	-0.41769	-0.000293695	1	0.000219295	43	4.5476	1.22674e-07
2	0	0	1	1	7298.45	-0.42403	-0.423177	-0.000328073	1	0.000219124	43	5.0972	1.38833e-07
2	0	0	1	1	7299	-0.429527	-0.42869	-0.000361937	1	0.000218935	43	5.647	1.55159e-07
2	0	0	1	1	7299.55	-0.435024	-0.434187	-0.000396042	1	0.000218726	43	6.1966	1.71956e-07
2	0	0	1	1	7300.1	-0.440521	-0.439664	-0.000429548	1	0.000218499	43	6.7464	1.88857e-07
2	0	0	1	1	7300.65	-0.446018	-0.445178	-0.000463533	1	0.000218254	43	7.296	2.06354e-07
2	0	0	1	1	7301.2	-0.451515	-0.450647	-0.000497491	1	0.00021799	43	7.8458	2.24193e-07
2	0	0	1	1	7301.75	-0.457012	-0.456154	-0.00053053	1	0.000217707	43	8.3954	2.42003e-07
2	0	0	1	1	7302.22	-0.461759	-0.46089	-0.000560431	2	0.000217448	43	8.8702	2.58297e-07
2	0	0	1	1	7302.77	-0.467256	-0.466412	-0.000594083	2	0.00021713	43	9.4199	2.77087e-07
2	0	0	1	1	7303.32	-0.472753	-0.471933	-0.000628497	2	0.000216794	43	9.9696	2.96609e-07
2	0	0	1	1	7303.87	-0.47825	-0.47738	-0.000662306	2	0.00021644	43	10.5193	3.16172e-07
2	0	0	1	1	7304.42	-0.483747	-0.482933	-0.000697027	2	0.000216066	43	11.069	3.36617e-07
2	0	0	1	1	7304.97	-0.489244	-0.488385	-0.000731066	2	0.000215673	43	11.6187	3.57042e-07
2	0	0	1	1	7305.52	-0.494741	-0.493898	-0.000765294	2	0.000215262	43	12.1684	3.77977e-07
2	0	0	1	1	7306.07	-0.500239	-0.499419	-0.000800092	2	0.000214831	43	12.7182	3.99581e-07
2	0	0	1	1	7306.62	-0.505736	-0.504905	-0.000835243	2	0.000214382	43	13.2678	4.21719e-07
2	0	0	1	1	7307.12	-0.509134	-0.50965	-0.000848244	2	0.000213961	43	13.7632	4.32307e-07
2	0	0	1	1	7307.67	-0.503637	-0.504421	-0.000549676	2	0.000213594	43	14.3128	2.77268e-07
2	0	0	1	1	7308.22	-0.49814	-0.498906	-0.000404945	2	0.000213335	43	14.8626	2.02029e-07
2	0	0	1	1	7308.77	-0.492643	-0.493448	-0.000297062	2	0.000213143	43	15.4122	1.46585e-07
2	0	0	1	1	7309.32	-0.487146	-0.487911	-0.000210475	2	0.000213004	43	15.962	1.02693e-07
2	0	0	1	1	7309.87	-0.481649	-0.482444	-0.000137674	2	0.000212909	43	16.5116	6.642e-08
2	0	0	1	1	7310.42	-0.476152	-0.476913	-7.4432e-05	2	0.000212852	43	17.0614	3.54976e-08
2	1	0	1	1	7311.36	-0.466657	-0.467432	1.90728e-05	2	0.000212819	44	0.1498	-8.91523e-09
2	1	0	1	1	7311.91	-0.46116	-0.461955	6.62266e-05	2	0.000212842	44	0.6996	-3.05937e-08
2	1	0	1	1	7312.66	-0.453664	-0.454434	0.000125695	2	0.000212913	44	1.4491	-5.71202e-08
2	1	0	1	1	7313.41	-0.446168	-0.446912	0.000180828	2	0.000213024	43	2.1988	-8.08142e-08
2	1	0	1	1	7313.96	-0.440671	-0.441423	0.00021902	2	0.000213134	43	2.7484	-9.66805e-08
2	1	0	1	1	7314.51	-0.435174	-0.435933	0.000256269	2	0.000213265	43	3.2982	-1.11716e-07
2	1	0	1	1	7315.06	-0.429677	-0.430445	0.000292785	2	0.000213415	43	3.8478	-1.26028e-07
2	1	0	1	1	7315.61	-0.42418	-0.42492	0.000328322	2	0.000213586	43	4.3976	-1.3951e-07
2	1	0	1	1	7316.16	-0.418683	-0.419432	0.000363863	2	0.000213776	43	4.9472	-1.52616e-07
2	1	0	1	1	7316.71	-0.413186	-0.413947	0.000399061	2	0.000213986	43	5.497	-1.6519e-07
2	1	0	1	1	7317.26	-0.407688	-0.408434	0.000434453	2	0.000214215	43	6.0466	-1.77446e-07
2	1	0	1	1	7317.81	-0.402191	-0.402943	0.000469678	2	0.000214464	43	6.5964	-1.89253e-07
2	1	0	1	1	7318.36	-0.396694	-0.397439	0.000505593	2	0.000214732	43	7.1461	-2.00942e-07
2	1	0	1	1	7318.91	-0.391197	-0.39194	0.000541895	2	0.000215021	43	7.6958	-2.1239e-07
2	1	0	1	1	7319.46	-0.3857	-0.386437	0.000578944	2	0.000215329	43	8.2455	-2.23725e-07
2	1	0	1	1	7320.01	-0.380203	-0.380933	0.00061616	2	0.000215657	43	8.7952	-2.34715e-07
2	1	0	1	1	7320.56	-0.374707	-0.375459	0.00065424	2	0.000216007	43	9.3449	-2.4564e-07
2	1	0	1	1	7321.11	-0.369209	-0.369948	0.000693078	2	0.000216377	43	9.8946	-2.56403e-07
2	1	0	1	1	7321.66	-0.363712	-0.364443	0.000732568	2	0.000216769	43	10.4444	-2.66979e-07
2	1	0	1	1	7322.21	-0.358215	-0.358946	0.000773075	2	0.000217183	43	10.994	-2.77492e-07
2	1	0	1	1	7322.76	-0.352718	-0.353437	0.000814477	2	0.000217619	43	11.5438	-2.87866e-07
2	1	0	1	1	7323.31	-0.347221	-0.347955	0.000856926	2	0.000218078	43	12.0934	-2.98172e-07
2	1	0	1	1	7323.86	-0.341724	-0.342452	0.000900235	2	0.000218561	43	12.6432	-3.08287e-07
2	1	0	1	1	7324.41	-0.336227	-0.336955	0.000945156	2	0.000219068	43	13.1928	-3.18475e-07
2	1	0	1	1	7324.96	-0.33073	-0.331465	0.000990819	2	0.000219601	43	13.7426	-3.28422e-07
2	1	0	1	1	7325.51	-0.325233	-0.325974	0.00103784	2	0.000220158	43	14.2922	-3.3831e-07
2	1	0	1	1	7326.06	-0.319736	-0.32047	0.00108585	2	0.000220742	43	14.842	-3.47981e-07
2	1	0	1	1	7327.01	-0.310241	-0.311027	0.00117453	2	0.000221808	42	15.7914	-3.65309e-07
2	1	0	1	1	7327.56	-0.304744	-0.305515	0.00122415	2	0.000222467	42	16.3412	-3.73996e-07
2	1	0	1	1	7328.11	-0.299247	-0.300026	0.00127783	2	0.000223155	42	16.8908	-3.83383e-07
2	1	0	1	1	7328.66	-0.29375	-0.294507	0.00133339	2	0.000223873	42	17.4406	-3.92693e-07
2	1	0	1	1	7329.21	-0.288253	-0.289011	0.00138846	2	0.00022462	42	17.9902	-4.01281e-07
2	1	0	1	1	7329.75	-0.282756	-0.283516	0.00144716	2	0.0002254	42	18.54	-4.10293e-07
2	1	0	1	1	7330.3	-0.277259	-0.278029	0.00150678	2	0.000226211	42	19.0896	-4.18929e-07
2	1	0	1	1	7330.85	-0.271762	-0.272525	0.00156691	2	0.000227056	42	19.6394	-4.27023e-07
2	1	0	1	1	7331.4	-0.266265	-0.267057	0.00162991	2	0.000227935	42	20.189	-4.35277e-07
2	1	0	1	1	7331.95	-0.260768	-0.261555	0.00169377	2	0.000228849	42	20.7388	-4.43013e-07
2	1	0	1	1	7332.5	-0.255271	-0.256064	0.00176045	2	0.000229798	42	21.2884	-4.50786e-07
2	1	0	1	1	7333.05	-0.249774	-0.250539	0.00182684	2	0.000230784	42	21.8382	-4.57694e-07
2	1	0	1	1	7333.6	-0.244277	-0.245068	0.00189673	2	0.000231808	42	22.3878	-4.64827e-07
2	1	0	1	1	7334.15	-0.23878	-0.239554	0.00196743	2	0.000232871	42	22.9376	-4.71306e-07
2	1	0	1	1	7334.7	-0.233283	-0.234051	0.00204252	2	0.000233973	42	23.4872	-4.78055e-07
2	1	0	1	1	7335.25	-0.227786	-0.22859	0.00211513	2	0.000235115	42	24.037	-4.83497e-07
2	1	0	1	1	7335.8	-0.222288	-0.223082	0.00219205	2	0.000236299	42	24.5866	-4.89007e-07
2	1	0	1	1	7336.35	-0.216791	-0.21759	0.00227183	2	0.000237525	42	25.1364	-4.94328e-07
2	1	0	1	1	7336.9	-0.211294	-0.212079	0.00234875	2	0.000238795	42	25.686	-4.98119e-07
2	1	0	1	1	7337.45	-0.205797	-0.206577	0.00242757	2	0.000240108	42	26.2358	-5.0148e-07
2	1	0	1	1	7338	-0.2003	-0.201067	0.00251229	2	0.000241466	42	26.7855	-5.05138e-07
2	1	0	1	1	7338.55	-0.194803	-0.195595	0.00259282	2	0.000242869	42	27.3352	-5.07142e-07
2	1	0	1	1	7339.1	-0.189306	-0.190107	0.00267836	2	0.000244318	42	27.8849	-5.09173e-07
2	1	0	1	1	7339.65	-0.183809	-0.184611	0.00276546	2	0.000245814	42	28.4346	-5.10534e-07
2	1	0	1	1	7340.2	-0.178313	-0.1791	0.0028537	2	0.000247359	42	28.9843	-5.11097e-07
2	1	0	1	1	7340.75	-0.172815	-0.173607	0.00294252	2	0.000248951	42	29.534	-5.10843e-07
2	1	0	1	1	7341.3	-0.167318	-0.168101	0.00303093	2	0.000250593	42	30.0838	-5.09501e-07
2	1	0	1	1	7341.85	-0.161821	-0.162622	0.00312446	2	0.000252284	42	30.6334	-5.08104e-07
2	1	0	1	1	7342.4	-0.156324	-0.157075	0.00321089	2	0.000254025	42	31.1832	-5.04351e-07
2	1	0	1	1	7342.95	-0.150827	-0.151615	0.00330454	2	0.000255816	42	31.7328	-5.01017e-07
2	1	0	1	1	7343.5	-0.14533	-0.146118	0.00339851	2	0.000257659	42	32.2826	-4.96584e-07
2	1	0	1	1	7344.05	-0.139833	-0.140651	0.0034923	2	0.000259553	42	32.8322	-4.91195e-07
2	1	0	1	1	7344.6	-0.134336	-0.135134	0.00358949	2	0.0002615	42	33.382	-4.85063e-07
2	1	0	1	1	7345.15	-0.128839	-0.129645	0.00368203	2	0.000263498	42	33.9316	-4.77357e-07
2	1	0	1	1	7345.7	-0.123342	-0.124129	0.00378514	2	0.000265552	42	34.4814	-4.69845e-07
2	1	0	1	1	7346.25	-0.117845	-0.118642	0.00387821	2	0.000267659	42	35.031	-4.6012e-07
2	1	0	1	1	7346.8	-0.112348	-0.113153	0.00397627	2	0.000269819	42	35.5808	-4.49928e-07
2	1	0	1	1	7347.35	-0.106851	-0.107639	0.00406962	2	0.000272031	42	36.1304	-4.38051e-07
2	1	0	1	1	7347.9	-0.101354	-0.102132	0.00416598	2	0.000274295	42	36.6802	-4.25481e-07
2	1	0	1	1	7348.44	-0.0958567	-0.0966568	0.00426372	2	0.000276612	42	37.2298	-4.12117e-07
2	1	0	1	1	7348.99	-0.0903597	-0.0911602	0.00436149	2	0.000278983	42	37.7796	-3.97594e-07
2	1	0	1	1	7349.54	-0.0848626	-0.0856747	0.00445621	2	0.000281406	42	38.3292	-3.81784e-07
2	1	0	1	1	7350.09	-0.0793656	-0.0801804	0.00455073	2	0.000283883	42	38.879	-3.6488e-07
2	1	0	1	1	7350.64	-0.0738686	-0.0746666	0.00464413	2	0.00028641	42	39.4286	-3.46761e-07
2	1	0	1	1	7351.19	-0.0683715	-0.0691665	0.00474127	2	0.000288991	42	39.9784	-3.27937e-07
2	1	0	1	1	7351.74	-0.0628745	-0.0636925	0.00483483	2	0.000291623	42	40.528	-3.07943e-07
2	1	0	1	1	7352.29	-0.0573775	-0.058184	0.00492661	2	0.000294307	42	41.0778	-2.8665e-07
2	1	0	1	1	7352.84	-0.0518804	-0.0526705	0.00502205	2	0.000297041	42	41.6274	-2.64514e-07
2	1	0	1	1	7353.39	-0.0463834	-0.0472069	0.00511228	2	0.000299827	42	42.1772	-2.41335e-07
2	1	0	1	1	7353.94	-0.0408855	-0.0416876	0.00520152	2	0.000302662	42	42.7269	-2.16839e-07
2	1	0	1	1	7354.49	-0.0353893	-0.0362017	0.00529441	2	0.000305547	42	43.2766	-1.91667e-07
2	1	0	1	1	7355.04	-0.0298918	-0.030709	0.00538204	2	0.000308482	42	43.8263	-1.65277e-07
2	1	0	1	1	7355.59	-0.0243953	-0.0251778	0.00546792	2	0.000311465	42	44.376	-1.37671e-07
2	1	0	1	1	7356.14	-0.0188984	-0.0197044	0.00555165	2	0.000314494	42	44.9257	-1.09392e-07
2	1	0	1	1	7356.69	-0.0134012	-0.0142284	0.00563538	2	0.000317569	42	45.4754	-8.01825e-08
2	1	0	1	1	7357.24	-0.00790482	-0.00872172	0.00572092	2	0.000320691	42	46.0251	-4.98962e-08
2	1	0	1	1	7357.79	-0.00240711	-0.00320369	0.005798	2	0.000323857	42	46.5748	-1.8575e-08
2	1	0	1	0	7358.26	-0.00225719	-0.00142067	0.00570411	2	0.000326585	42	47.045	-8.10367e-09
2	1	0	1	0	7358.81	-0.00775445	-0.00689925	0.00540106	2	0.000329635	42	47.5947	-3.72633e-08
2	1	0	1	0	7359.36	-0.0132513	-0.012378	0.00514441	2	0.000332534	42	48.1444	-6.36773e-08
2	1	0	1	0	7359.91	-0.0187481	-0.0178771	0.00491181	2	0.000335296	42	48.6941	-8.78091e-08
2	1	0	1	0	7360.46	-0.0242453	-0.0233967	0.00469278	2	0.000337935	42	49.2438	-1.09796e-07
2	1	0	1	0	7361.01	-0.0297415	-0.0288556	0.00449327	2	0.000340459	42	49.7935	-1.29656e-07
2	1	0	1	0	7361.56	-0.0352394	-0.034368	0.00432136	2	0.000342884	42	50.3432	-1.48517e-07
2	1	0	1	0	7362.11	-0.0407364	-0.0398736	0.00412684	2	0.000345202	42	50.893	-1.64552e-07
2	1	0	1	0	7362.66	-0.0462335	-0.0453675	0.00396085	2	0.000347425	42	51.4426	-1.79694e-07
2	1	0	1	0	7363.21	-0.0517305	-0.0508795	0.00380598	2	0.00034956	42	51.9924	-1.93646e-07
2	1	0	1	0	7363.76	-0.0572275	-0.056387	0.00365663	2	0.00035161	42	52.542	-2.06186e-07
2	1	0	1	0	7364.31	-0.0627246	-0.0618531	0.00351396	2	0.00035358	42	53.0918	-2.17349e-07
2	1	0	1	0	7364.86	-0.0682216	-0.0673531	0.00337849	2	0.000355474	42	53.6414	-2.27552e-07
2	1	0	1	0	7365.41	-0.0737186	-0.0728479	0.00324997	2	0.000357296	42	54.1912	-2.36753e-07
2	1	0	1	0	7365.96	-0.0792157	-0.0783569	0.00312715	2	0.000359048	42	54.7408	-2.45034e-07
2	1	0	1	0	7366.51	-0.0847127	-0.083855	0.00301487	2	0.00036074	42	55.2906	-2.52812e-07
2	1	0	1	0	7367.06	-0.0902097	-0.0893443	0.00290168	2	0.000362364	42	55.8402	-2.59248e-07
2	1	0	1	0	7367.6	-0.0957068	-0.0948157	0.00280149	2	0.000363924	42	56.39	-2.65625e-07
2	1	0	1	0	7368.15	-0.101204	-0.100324	0.00268515	2	0.00036543	42	56.9396	-2.69384e-07
2	1	0	1	0	7368.7	-0.106701	-0.105807	0.00256925	2	0.000366877	42	57.4894	-2.71844e-07
2	1	0	1	0	7369.25	-0.112198	-0.11134	0.00247879	2	0.000368266	42	58.039	-2.75988e-07
2	1	0	1	0	7369.8	-0.117695	-0.116826	0.00238564	2	0.000369602	42	58.5888	-2.78705e-07
2	1	0	1	0	7370.35	-0.123192	-0.122325	0.0022931	2	0.000370887	42	59.1384	-2.80502e-07
2	1	0	1	0	7370.9	-0.128689	-0.127815	0.00220351	2	0.000372123	42	59.6882	-2.81642e-07
2	1	0	1	0	7371.45	-0.134186	-0.133328	0.00211781	2	0.00037331	42	60.2378	-2.82365e-07
2	1	0	1	0	7372	-0.139683	-0.138821	0.00203371	2	0.000374451	42	60.7876	-2.82322e-07
2	1	0	1	0	7372.55	-0.14518	-0.14432	0.00195387	2	0.000375547	42	61.3372	-2.81982e-07
2	1	0	1	0	7373.1	-0.150677	-0.149813	0.00187699	2	0.0003766	42	61.887	-2.81198e-07
2	1	0	1	0	7373.65	-0.156174	-0.155299	0.00180083	2	0.00037761	42	62.4366	-2.79667e-07
2	1	0	1	0	7374.2	-0.161671	-0.160803	0.00172632	2	0.000378579	42	62.9864	-2.77599e-07
2	1	0	1	0	7374.75	-0.167169	-0.166306	0.00165305	2	0.000379508	42	63.5361	-2.74912e-07
2	1	0	1	0	7375.3	-0.172665	-0.171783	0.00158474	2	0.000380398	42	64.0858	-2.72231e-07
2	1	0	1	0	7375.85	-0.178162	-0.177288	0.00151794	2	0.000381251	42	64.6355	-2.69112e-07
2	1	0	1	0	7376.4	-0.183659	-0.182768	0.00145353	2	0.000382068	42	65.1852	-2.6566e-07
2	1	0	1	0	7376.95	-0.189156	-0.188264	0.00138847	2	0.000382849	42	65.7349	-2.614e-07
2	1	0	1	0	7377.5	-0.194653	-0.193814	0.00132624	2	0.000383595	42	66.2846	-2.57044e-07
2	1	0	1	0	7378.05	-0.20015	-0.199291	0.00126435	2	0.000384307	42	66.8344	-2.51974e-07
2	1	0	1	0	7378.6	-0.205647	-0.204762	0.00120728	2	0.000384987	42	67.384	-2.47206e-07
2	1	0	1	0	7379.15	-0.211145	-0.210261	0.00115038	2	0.000385635	42	67.9338	-2.41881e-07
2	1	0	1	0	7379.7	-0.216642	-0.215768	0.00109458	2	0.000386252	42	68.4834	-2.36175e-07
2	1	0	1	0	7380.25	-0.222139	-0.221225	0.00103932	2	0.000386838	42	69.0332	-2.29924e-07
2	1	0	1	0	7380.8	-0.227636	-0.226749	0.000986283	2	0.000387395	42	69.5828	-2.23638e-07
2	1	0	1	0	7381.35	-0.233133	-0.232255	0.000935074	2	0.000387923	42	70.1326	-2.17176e-07
2	1	0	1	0	7381.9	-0.23863	-0.23775	0.000884162	2	0.000388424	42	70.6822	-2.10209e-07
2	1	0	1	0	7382.45	-0.244127	-0.243258	0.000835956	2	0.000388896	42	71.232	-2.03353e-07
2	1	0	1	0	7383	-0.249624	-0.248759	0.000787913	2	0.000389342	42	71.7816	-1.96e-07
2	1	0	1	0	7383.55	-0.255121	-0.25425	0.000740476	2	0.000389762	42	72.3314	-1.88266e-07
2	1	0	1	0	7384.1	-0.260618	-0.259764	0.000694644	2	0.000390156	42	72.881	-1.80443e-07
2	1	0	1	0	7384.65	-0.266115	-0.265255	0.000649213	2	0.000390525	42	73.4308	-1.72207e-07
2	1	0	1	0	7385.2	-0.271612	-0.27072	0.000605027	2	0.00039087	42	73.9804	-1.63793e-07
2	1	0	1	0	7385.75	-0.277109	-0.276243	0.000562798	2	0.000391191	42	74.5302	-1.55469e-07
2	1	0	1	0	7386.29	-0.282606	-0.281718	0.000520803	2	0.000391488	42	75.0798	-1.4672e-07
2	1	0	1	0	7386.84	-0.288103	-0.287209	0.000478748	2	0.000391763	42	75.6296	-1.375e-07
2	1	0	1	0	7387.79	-0.297598	-0.296696	0.000410094	2	0.00039219	43	76.579	-1.21673e-07
2	1	0	1	0	7388.34	-0.303095	-0.302201	0.000371168	2	0.000392405	43	77.1288	-1.12167e-07
2	1	0	1	0	7388.89	-0.308592	-0.307704	0.000332658	2	0.000392598	43	77.6784	-1.0236e-07
2	1	0	1	0	7389.44	-0.314089	-0.313196	0.000293687	2	0.00039277	43	78.2282	-9.19815e-08
2	1	0	1	0	7389.99	-0.319586	-0.318702	0.000256019	2	0.000392921	43	78.7778	-8.15939e-08
2	1	0	1	0	7390.54	-0.325083	-0.324176	0.000218936	2	0.000393052	43	79.3276	-7.09737e-08
2	1	0	1	0	7391.09	-0.33058	-0.329678	0.000182385	2	0.000393162	43	79.8772	-6.01283e-08
2	1	0	1	0	7391.64	-0.336077	-0.335179	0.000146061	2	0.000393252	43	80.427	-4.89567e-08
2	1	0	1	0	7392.19	-0.341574	-0.340713	0.000109718	2	0.000393322	43	80.9766	-3.73825e-08
2	1	0	1	0	7392.74	-0.347071	-0.346191	7.41748e-05	2	0.000393373	43	81.5264	-2.56787e-08
2	1	0	1	0	7393.69	-0.356566	-0.355674	1.37813e-05	2	0.000393419	44	82.4758	-4.90166e-09
2	0	0	1	0	7394.24	-0.362063	-0.361211	-2.11925e-05	2	0.000393417	44	0.2998	7.65494e-09
2	0	0	1	0	7394.79	-0.36756	-0.366675	-5.56876e-05	2	0.000393396	44	0.8494	2.04192e-08
2	0	0	1	0	7395.34	-0.373057	-0.372166	-8.96505e-05	2	0.000393356	44	1.3992	3.33649e-08
2	0	0	1	0	7396.29	-0.382552	-0.381677	-0.00014895	2	0.000393248	43	2.3486	5.68506e-08
2	0	0	1	0	7396.84	-0.388049	-0.387168	-0.000182666	2	0.000393157	43	2.8984	7.07225e-08
2	0	0	1	0	7397.39	-0.393546	-0.392656	-0.000216563	2	0.000393047	43	3.448	8.50348e-08
2	0	0	1	0	7397.94	-0.399043	-0.39815	-0.000250394	2	0.000392918	43	3.9978	9.96942e-08
2	0	0	1	0	7398.49	-0.40454	-0.403654	-0.000284157	2	0.000392771	43	4.5474	1.14701e-07
2	0	0	1	0	7399.04	-0.410037	-0.409192	-0.00031828	2	0.000392606	43	5.0972	1.30238e-07
2	0	0	1	0	7399.59	-0.415535	-0.414681	-0.000351708	2	0.000392422	43	5.6469	1.45847e-07
2	0	0	1	0	7400.14	-0.421031	-0.420189	-0.000385352	2	0.000392219	43	6.1966	1.61921e-07
2	0	0	1	0	7400.69	-0.426529	-0.425677	-0.000419099	2	0.000391998	43	6.7463	1.78401e-07
2	0	0	1	0	7401.24	-0.432025	-0.431154	-0.000452861	2	0.000391758	43	7.296	1.95253e-07
2	0	0	1	0	7401.79	-0.437522	-0.436653	-0.000486938	2	0.0003915	43	7.8457	2.12623e-07
2	0	0	1	0	7402.34	-0.443019	-0.442199	-0.000521391	2	0.000391223	43	8.3954	2.30559e-07
2	0	0	1	0	7402.89	-0.448516	-0.447645	-0.000555855	2	0.000390927	43	8.9451	2.48826e-07
2	0	0	1	0	7403.44	-0.454014	-0.453141	-0.000590504	2	0.000390612	43	9.4948	2.67581e-07
2	0	0	1	0	7403.99	-0.459511	-0.458651	-0.000624012	2	0.000390279	43	10.0446	2.86204e-07
2	0	0	1	0	7404.46	-0.464258	-0.463397	-0.000654902	3	0.000389975	43	10.5192	3.03479e-07
2	0	0	1	0	7405.01	-0.469755	-0.468897	-0.000689559	3	0.000389606	43	11.069	3.23332e-07
2	0	0	1	0	7405.56	-0.475252	-0.4744	-0.000724381	3	0.000389217	43	11.6186	3.43646e-07
2	0	0	1	0	7406.11	-0.480749	-0.479907	-0.000759667	3	0.000388809	43	12.1684	3.6457e-07
2	0	0	1	0	7406.66	-0.486246	-0.4854	-0.00079543	3	0.000388381	43	12.718	3.86102e-07
2	0	0	1	0	7407.21	-0.491743	-0.490917	-0.000831683	3	0.000387934	43	13.2678	4.08288e-07
2	0	0	1	0	7407.76	-0.49724	-0.496396	-0.000868247	3	0.000387467	43	13.8174	4.30994e-07
2	0	0	1	0	7408.31	-0.502737	-0.501895	-0.000904878	3	0.000386979	43	14.3672	4.54154e-07
2	0	0	1	0	7408.86	-0.508234	-0.5074	-0.000939578	3	0.000386471	43	14.9168	4.76741e-07
2	0	0	1	0	7409.35	-0.506635	-0.50742	-0.000751991	3	0.000386031	43	15.4122	3.81575e-07
2	0	0	1	0	7409.9	-0.501138	-0.501918	-0.000552553	3	0.000385677	43	15.962	2.77336e-07
2	0	0	1	0	7410.45	-0.495641	-0.496401	-0.000416991	3	0.000385413	43	16.5116	2.06995e-07
2	0	0	1	0	7411	-0.490144	-0.49091	-0.000311499	3	0.000385214	43	17.0614	1.52918e-07
2	0	0	1	0	7411.55	-0.484647	-0.485403	-0.000224914	3	0.000385067	43	17.611	1.09174e-07
2	0	0	1	0	7412.1	-0.47915	-0.479915	-0.000150942	3	0.000384964	43	18.1608	7.24395e-08
2	0	0	1	0	7412.65	-0.473653	-0.4744	-8.64791e-05	3	0.0003849	43	18.7104	4.10257e-08
2	1	0	1	0	7413.6	-0.464158	-0.464922	8.72003e-06	3	0.000384856	44	0.000000000000000E+000	-4.05413e-09
2	1	0	1	0	7414.15	-0.458661	-0.459391	5.71237e-05	3	0.000384874	44	0.5496	-2.62422e-08
2	1	0	1	0	7414.7	-0.453164	-0.453933	0.000101443	3	0.000384918	44	1.0994	-4.60484e-08
2	1	0	1	0	7415.65	-0.443669	-0.444413	0.000172431	3	0.000385042	43	2.0488	-7.66304e-08
2	1	0	1	0	7416.2	-0.438172	-0.438936	0.000211139	3	0.000385148	43	2.5986	-9.26766e-08
2	1	0	1	0	7416.75	-0.432675	-0.433429	0.000247876	3	0.000385274	43	3.1482	-1.07437e-07
2	1	0	1	0	7417.3	-0.427178	-0.427948	0.000283362	3	0.00038542	43	3.698	-1.21264e-07
2	1	0	1	0	7417.85	-0.421681	-0.422429	0.000318733	3	0.000385586	43	4.2476	-1.34642e-07
2	1	0	1	0	7418.4	-0.416184	-0.416926	0.000353049	3	0.000385771	43	4.7974	-1.47195e-07
2	1	0	1	0	7418.95	-0.410687	-0.411432	0.000387805	3	0.000385974	43	5.347	-1.59555e-07
2	1	0	1	0	7419.5	-0.40519	-0.405925	0.000421742	3	0.000386197	43	5.8968	-1.71196e-07
2	1	0	1	0	7420.05	-0.399693	-0.400436	0.000455713	3	0.000386438	43	6.4464	-1.82484e-07
2	1	0	1	0	7420.6	-0.394196	-0.39493	0.000488966	3	0.000386697	43	6.9962	-1.93107e-07
2	1	0	1	0	7421.15	-0.388699	-0.389444	0.000523442	3	0.000386976	43	7.5458	-2.03852e-07
2	1	0	1	0	7421.7	-0.383202	-0.383938	0.000558457	3	0.000387273	43	8.0956	-2.14413e-07
2	1	0	1	0	7422.25	-0.377705	-0.378433	0.000592862	3	0.000387589	43	8.6452	-2.24358e-07
2	1	0	1	0	7422.8	-0.372208	-0.372929	0.000628558	3	0.000387925	43	9.195	-2.34407e-07
2	1	0	1	0	7423.35	-0.366711	-0.367445	0.000664173	3	0.000388281	43	9.7446	-2.44047e-07
2	1	0	1	0	7423.9	-0.361214	-0.361932	0.000701054	3	0.000388656	43	10.2944	-2.53734e-07
2	1	0	1	0	7424.44	-0.355716	-0.356453	0.000738274	3	0.000389051	43	10.844	-2.6316e-07
2	1	0	1	0	7424.99	-0.350219	-0.350946	0.00077597	3	0.000389468	43	11.3938	-2.72324e-07
2	1	0	1	0	7425.54	-0.344722	-0.345452	0.000815736	3	0.000389905	43	11.9434	-2.81798e-07
2	1	0	1	0	7426.09	-0.339225	-0.339943	0.00085486	3	0.000390364	43	12.4932	-2.90603e-07
2	1	0	1	0	7426.64	-0.333728	-0.334459	0.000895946	3	0.000390846	43	13.0429	-2.99657e-07
2	1	0	1	0	7427.19	-0.328231	-0.328951	0.000934783	3	0.000391349	43	13.5926	-3.07497e-07
2	1	0	1	0	7427.74	-0.322734	-0.323458	0.000978221	3	0.000391875	43	14.1423	-3.16414e-07
2	1	0	1	0	7428.29	-0.317237	-0.317947	0.00102125	3	0.000392425	43	14.692	-3.24703e-07
2	1	0	1	0	7428.84	-0.311741	-0.312464	0.00106599	3	0.000392998	43	15.2417	-3.33084e-07
2	1	0	1	0	7429.79	-0.302245	-0.303001	0.00114952	3	0.000394042	42	16.1912	-3.48307e-07
2	1	0	1	0	7430.34	-0.296748	-0.297512	0.00119346	3	0.000394686	42	16.7409	-3.55067e-07
2	1	0	1	0	7430.89	-0.291251	-0.292009	0.00124358	3	0.000395356	42	17.2906	-3.63136e-07
2	1	0	1	0	7431.44	-0.285755	-0.286508	0.0012904	3	0.000396052	42	17.8403	-3.6971e-07
2	1	0	1	0	7431.99	-0.280257	-0.281022	0.00134324	3	0.000396776	42	18.39	-3.7748e-07
2	1	0	1	0	7432.54	-0.274761	-0.275525	0.00139526	3	0.000397529	42	18.9397	-3.8443e-07
2	1	0	1	0	7433.09	-0.269263	-0.270019	0.00144933	3	0.00039831	42	19.4894	-3.91346e-07
2	1	0	1	0	7433.64	-0.263766	-0.264533	0.00150468	3	0.000399122	42	20.0392	-3.98037e-07
2	1	0	1	0	7434.19	-0.258269	-0.259027	0.0015619	3	0.000399964	42	20.5888	-4.04574e-07
2	1	0	1	0	7434.74	-0.252772	-0.253519	0.00161957	3	0.000400838	42	21.1386	-4.10592e-07
2	1	0	1	0	7435.29	-0.247275	-0.248055	0.00167946	3	0.000401745	42	21.6882	-4.16597e-07
2	1	0	1	0	7435.84	-0.241778	-0.242543	0.00174072	3	0.000402685	42	22.238	-4.22199e-07
2	1	0	1	0	7436.39	-0.236281	-0.23706	0.00180238	3	0.000403659	42	22.7876	-4.27272e-07
2	1	0	1	0	7436.94	-0.230784	-0.231543	0.00186733	3	0.000404668	42	23.3374	-4.32368e-07
2	1	0	1	0	7437.49	-0.225287	-0.226062	0.00193341	3	0.000405713	42	23.887	-4.37071e-07
2	1	0	1	0	7438.04	-0.21979	-0.220566	0.00200091	3	0.000406795	42	24.4368	-4.41332e-07
2	1	0	1	0	7438.59	-0.214293	-0.215059	0.00207031	3	0.000407913	42	24.9864	-4.45239e-07
2	1	0	1	0	7439.14	-0.208796	-0.20956	0.00214065	3	0.000409071	42	25.5362	-4.48596e-07
2	1	0	1	0	7439.69	-0.203299	-0.204055	0.00221106	3	0.000410266	42	26.0858	-4.51178e-07
2	1	0	1	0	7440.24	-0.197802	-0.198583	0.00228383	3	0.000411502	42	26.6356	-4.53528e-07
2	1	0	1	0	7440.79	-0.192305	-0.193071	0.00235721	3	0.000412777	42	27.1852	-4.5511e-07
2	1	0	1	0	7441.34	-0.186808	-0.18758	0.00243161	3	0.000414093	42	27.735	-4.56122e-07
2	1	0	1	0	7441.89	-0.181311	-0.182057	0.00250752	3	0.00041545	42	28.2846	-4.56513e-07
2	1	0	1	0	7442.44	-0.175814	-0.176582	0.00258685	3	0.000416851	42	28.8344	-4.56791e-07
2	1	0	1	0	7442.98	-0.170317	-0.171068	0.0026635	3	0.000418293	42	29.384	-4.5564e-07
2	1	0	1	0	7443.53	-0.164819	-0.165601	0.00274479	3	0.00041978	42	29.9338	-4.54539e-07
2	1	0	1	0	7444.08	-0.159322	-0.160097	0.0028264	3	0.000421312	42	30.4834	-4.52497e-07
2	1	0	1	0	7444.63	-0.153825	-0.154613	0.00290757	3	0.000422888	42	31.0332	-4.49548e-07
2	1	0	1	0	7445.18	-0.148328	-0.149094	0.00298789	3	0.000424508	42	31.5828	-4.45476e-07
2	1	0	1	0	7445.73	-0.142831	-0.143615	0.00307221	3	0.000426175	42	32.1326	-4.41215e-07
2	1	0	1	0	7446.28	-0.137334	-0.138091	0.00315654	3	0.000427887	42	32.6823	-4.3589e-07
2	1	0	1	0	7446.83	-0.131837	-0.132613	0.00323915	3	0.000429644	42	33.232	-4.29553e-07
2	1	0	1	0	7447.38	-0.12634	-0.127135	0.00332231	3	0.000431448	42	33.7817	-4.22382e-07
2	1	0	1	0	7447.93	-0.120843	-0.12161	0.00340975	3	0.000433298	42	34.3314	-4.14659e-07
2	1	0	1	0	7448.48	-0.115347	-0.116135	0.00349398	3	0.000435195	42	34.8811	-4.05773e-07
2	1	0	1	0	7449.03	-0.109849	-0.110631	0.00357865	3	0.000437139	42	35.4308	-3.95911e-07
2	1	0	1	0	7449.58	-0.104352	-0.105134	0.0036652	3	0.000439131	42	35.9806	-3.85339e-07
2	1	0	1	0	7450.13	-0.0988551	-0.0996315	0.0037476	3	0.000441168	42	36.5302	-3.73379e-07
2	1	0	1	0	7450.68	-0.093358	-0.0941346	0.00383375	3	0.000443253	42	37.08	-3.60888e-07
2	1	0	1	0	7451.23	-0.087861	-0.0886447	0.00391762	3	0.000445383	42	37.6296	-3.47276e-07
2	1	0	1	0	7451.78	-0.082364	-0.0831317	0.00400313	3	0.000447559	42	38.1794	-3.32787e-07
2	1	0	1	0	7452.33	-0.0768669	-0.0776597	0.00408358	3	0.000449782	42	38.729	-3.1713e-07
2	1	0	1	0	7452.88	-0.0713699	-0.0721365	0.0041699	3	0.000452052	42	39.2788	-3.00802e-07
2	1	0	1	0	7453.43	-0.0658729	-0.0666731	0.00424802	3	0.000454365	42	39.8284	-2.83229e-07
2	1	0	1	0	7453.98	-0.0603758	-0.0611726	0.00433432	3	0.000456725	42	40.3782	-2.65142e-07
2	1	0	1	0	7454.53	-0.0548788	-0.0556732	0.00441372	3	0.000459129	42	40.9278	-2.45726e-07
2	1	0	1	0	7455.08	-0.0493818	-0.0501608	0.00449443	3	0.000461578	42	41.4776	-2.25444e-07
2	1	0	1	0	7455.63	-0.0438847	-0.0446773	0.00457296	3	0.000464069	42	42.0272	-2.04308e-07
2	1	0	1	0	7456.18	-0.0383877	-0.0391944	0.00464929	3	0.000466604	42	42.577	-1.82226e-07
2	1	0	1	0	7456.73	-0.0328907	-0.0336774	0.00472907	3	0.000469181	42	43.1266	-1.59263e-07
2	1	0	1	0	7457.28	-0.0273936	-0.0281811	0.0048143	3	0.000471802	42	43.6764	-1.35672e-07
2	1	0	1	0	7457.83	-0.0218966	-0.0227031	0.0048737	3	0.000474462	42	44.226	-1.10648e-07
2	1	0	1	0	7458.38	-0.0163996	-0.0172067	0.00494703	3	0.000477162	42	44.7758	-8.5122e-08
2	1	0	1	0	7458.93	-0.0109025	-0.0116871	0.00501516	3	0.000479899	42	45.3254	-5.86128e-08
2	1	0	1	0	7459.48	-0.00540549	-0.00621249	0.00508391	3	0.000482676	42	45.8752	-3.15838e-08
2	1	0	1	0	7460.01	-8.33653e-05	-0.00091033	0.00514501	3	0.000485398	42	46.4073	-4.68366e-09
2	1	0	1	1	7460.5	-0.00475584	-0.00391871	0.00490161	3	0.000487852	42	46.895	-1.9208e-08
2	1	0	1	1	7461.05	-0.0102529	-0.00939311	0.0046417	3	0.000490472	42	47.4448	-4.36e-08
2	1	0	1	1	7461.6	-0.0157499	-0.0148741	0.00442319	3	0.000492961	42	47.9944	-6.57909e-08
2	1	0	1	1	7462.14	-0.0212469	-0.0203911	0.0042228	3	0.000495336	42	48.5442	-8.61077e-08
2	1	0	1	1	7462.69	-0.026744	-0.0258638	0.00403397	3	0.000497604	42	49.0938	-1.04334e-07
2	1	0	1	1	7463.24	-0.032241	-0.0313582	0.00386374	3	0.000499775	42	49.6436	-1.2116e-07
2	1	0	1	1	7463.79	-0.0377381	-0.036876	0.00370475	3	0.000501854	42	50.1932	-1.36616e-07
2	1	0	1	1	7464.34	-0.0432351	-0.0423727	0.00355509	3	0.000503849	42	50.743	-1.50639e-07
2	1	0	1	1	7464.89	-0.0487321	-0.0478906	0.00341025	3	0.000505762	42	51.2926	-1.63319e-07
2	1	0	1	1	7465.44	-0.0542292	-0.0533408	0.00327777	3	0.000507601	42	51.8424	-1.74839e-07
2	1	0	1	1	7465.99	-0.0597269	-0.0588591	0.00315156	3	0.000509367	42	52.3921	-1.85498e-07
2	1	0	1	1	7466.54	-0.0652232	-0.0643371	0.00302855	3	0.000511066	42	52.9418	-1.94848e-07
2	1	0	1	1	7467.09	-0.0707205	-0.069852	0.00291458	3	0.000512699	42	53.4915	-2.03589e-07
2	1	0	1	1	7467.64	-0.0762173	-0.0753449	0.00280358	3	0.00051427	42	54.0412	-2.11235e-07
2	1	0	1	1	7468.19	-0.0817139	-0.0808331	0.00269805	3	0.000515782	42	54.5909	-2.18091e-07
2	1	0	1	1	7468.74	-0.0872114	-0.0863189	0.00259738	3	0.000517238	42	55.1406	-2.24203e-07
2	1	0	1	1	7469.29	-0.0927075	-0.0918323	0.00249982	3	0.000518638	42	55.6903	-2.29565e-07
2	1	0	1	1	7469.84	-0.0982054	-0.0973377	0.00240579	3	0.000519986	42	56.24	-2.34174e-07
2	1	0	1	1	7470.39	-0.103702	-0.102811	0.00231291	3	0.000521283	42	56.7898	-2.37793e-07
2	1	0	1	1	7470.94	-0.109199	-0.108314	0.00222692	3	0.000522531	42	57.3394	-2.41206e-07
2	1	0	1	1	7471.49	-0.114697	-0.113814	0.00214168	3	0.000523732	42	57.8892	-2.43753e-07
2	1	0	1	1	7472.04	-0.120194	-0.119301	0.00206	3	0.000524886	42	58.4388	-2.45761e-07
2	1	0	1	1	7472.59	-0.125691	-0.12479	0.00198081	3	0.000525996	42	58.9886	-2.47186e-07
2	1	0	1	1	7473.14	-0.131188	-0.130284	0.00190443	3	0.000527064	42	59.5382	-2.48115e-07
2	1	0	1	1	7473.69	-0.136685	-0.135775	0.00183085	3	0.00052809	42	60.088	-2.48584e-07
2	1	0	1	1	7474.24	-0.142182	-0.141305	0.00175867	3	0.000529076	42	60.6376	-2.48508e-07
2	1	0	1	1	7474.79	-0.147679	-0.146796	0.00169323	3	0.000530024	42	61.1874	-2.4856e-07
2	1	0	1	1	7475.34	-0.153176	-0.152258	0.00162036	3	0.000530933	42	61.737	-2.46713e-07
2	1	0	1	1	7475.89	-0.158673	-0.15775	0.00155477	3	0.000531806	42	62.2868	-2.45264e-07
2	1	0	1	1	7476.44	-0.16417	-0.163267	0.00149057	3	0.000532642	42	62.8364	-2.43361e-07
2	1	0	1	1	7476.99	-0.169667	-0.168766	0.00142807	3	0.000533445	42	63.3862	-2.4101e-07
2	1	0	1	1	7477.54	-0.175164	-0.174283	0.00136928	3	0.000534214	42	63.9358	-2.38642e-07
2	1	0	1	1	7478.09	-0.180661	-0.179779	0.00130748	3	0.000534949	42	64.4856	-2.35059e-07
2	1	0	1	1	7478.64	-0.186158	-0.185249	0.00125004	3	0.000535652	42	65.0352	-2.31569e-07
2	1	0	1	1	7479.19	-0.191655	-0.190743	0.00119672	3	0.000536324	42	65.585	-2.28266e-07
2	1	0	1	1	7479.74	-0.197152	-0.196268	0.00113894	3	0.000536966	42	66.1346	-2.23537e-07
2	1	0	1	1	7480.29	-0.202649	-0.201746	0.00108639	3	0.000537578	42	66.6844	-2.19174e-07
2	1	0	1	1	7480.83	-0.208146	-0.207249	0.00103483	3	0.00053816	42	67.234	-2.14468e-07
2	1	0	1	1	7481.38	-0.213643	-0.212723	0.000983975	3	0.000538715	42	67.7838	-2.09314e-07
2	1	0	1	1	7481.93	-0.219141	-0.218235	0.000934898	3	0.000539242	42	68.3335	-2.04028e-07
2	1	0	1	1	7482.48	-0.224637	-0.22374	0.000886041	3	0.000539743	42	68.8832	-1.98243e-07
2	1	0	1	1	7483.03	-0.230135	-0.229229	0.000839156	3	0.000540217	42	69.4329	-1.92359e-07
2	1	0	1	1	7483.58	-0.235631	-0.234736	0.000792622	3	0.000540665	42	69.9826	-1.86056e-07
2	1	0	1	1	7484.13	-0.241128	-0.240232	0.000748062	3	0.000541088	42	70.5323	-1.79708e-07
2	1	0	1	1	7484.68	-0.246625	-0.245708	0.00070346	3	0.000541487	42	71.082	-1.72846e-07
2	1	0	1	1	7485.23	-0.252122	-0.25122	0.000660222	3	0.000541862	42	71.6317	-1.65861e-07
2	1	0	1	1	7485.78	-0.257619	-0.256714	0.000617736	3	0.000542213	42	72.1814	-1.58581e-07
2	1	0	1	1	7486.33	-0.263116	-0.262209	0.000576443	3	0.000542541	42	72.7312	-1.51148e-07
2	1	0	1	1	7486.88	-0.268614	-0.267711	0.000535487	3	0.000542847	42	73.2808	-1.43356e-07
2	1	0	1	1	7487.43	-0.274111	-0.273198	0.000495525	3	0.00054313	42	73.8306	-1.35376e-07
2	1	0	1	1	7487.98	-0.279608	-0.27869	0.000456178	3	0.000543391	42	74.3802	-1.27132e-07
2	1	0	1	1	7488.93	-0.289102	-0.288176	0.000391736	3	0.000543799	43	75.3297	-1.12889e-07
2	1	0	1	1	7489.48	-0.294599	-0.293685	0.000353925	3	0.000544004	43	75.8794	-1.03942e-07
2	1	0	1	1	7490.03	-0.300097	-0.299154	0.000316384	3	0.000544188	43	76.4292	-9.46476e-08
2	1	0	1	1	7490.58	-0.305594	-0.304674	0.000280105	3	0.000544352	43	76.9788	-8.53408e-08
2	1	0	1	1	7491.13	-0.311091	-0.310194	0.00024381	3	0.000544496	43	77.5286	-7.56282e-08
2	1	0	1	1	7491.68	-0.316588	-0.315717	0.000208097	3	0.00054462	43	78.0782	-6.56996e-08
2	1	0	1	1	7492.23	-0.322085	-0.321165	0.000173112	3	0.000544725	43	78.628	-5.55975e-08
2	1	0	1	1	7492.78	-0.327582	-0.326687	0.000137709	3	0.000544811	43	79.1776	-4.49879e-08
2	1	0	1	1	7493.33	-0.333079	-0.332138	0.000103553	3	0.000544877	43	79.7274	-3.4394e-08
2	1	0	1	1	7493.88	-0.338576	-0.337673	6.9237e-05	3	0.000544924	43	80.277	-2.33794e-08
2	1	0	1	1	7494.83	-0.348071	-0.347155	1.05525e-05	3	0.000544967	44	81.2266	-3.66334e-09
2	0	0	1	1	7495.38	-0.353568	-0.352656	-2.30926e-05	3	0.000544964	44	0.3498	8.14375e-09
2	0	0	1	1	7495.93	-0.359065	-0.358192	-5.66024e-05	3	0.000544942	44	0.8996	2.02745e-08
2	0	0	1	1	7496.48	-0.364562	-0.363669	-9.0047e-05	3	0.000544901	44	1.4492	3.27473e-08
2	0	0	1	1	7497.43	-0.374057	-0.373167	-0.000147389	3	0.000544793	43	2.3988	5.50007e-08
2	0	0	1	1	7497.98	-0.379554	-0.378667	-0.000180664	3	0.000544703	43	2.9484	6.84113e-08
2	0	0	1	1	7498.53	-0.385051	-0.384197	-0.000213763	3	0.000544595	43	3.4982	8.21271e-08
2	0	0	1	1	7499.07	-0.390548	-0.389655	-0.00024728	3	0.000544468	43	4.0478	9.63538e-08
2	0	0	1	1	7499.62	-0.396045	-0.39514	-0.00027961	3	0.000544323	43	4.5976	1.10485e-07
2	0	0	1	1	7500.17	-0.401542	-0.400662	-0.000312761	3	0.00054416	43	5.1472	1.25311e-07
2	0	0	1	1	7500.72	-0.407039	-0.406138	-0.000345904	3	0.000543979	43	5.697	1.40485e-07
2	0	0	1	1	7501.27	-0.412536	-0.411665	-0.000379592	3	0.00054378	43	6.2466	1.56265e-07
2	0	0	1	1	7501.82	-0.418033	-0.417177	-0.000412713	3	0.000543562	43	6.7964	1.72175e-07
2	0	0	1	1	7502.37	-0.42353	-0.422668	-0.000445725	3	0.000543326	43	7.346	1.88394e-07
2	0	0	1	1	7502.92	-0.429027	-0.428174	-0.000481292	3	0.000543071	43	7.8958	2.06077e-07
2	0	0	1	1	7503.47	-0.434524	-0.433638	-0.00051224	3	0.000542798	43	8.4454	2.22127e-07
2	0	0	1	1	7504.02	-0.440021	-0.439145	-0.000547006	3	0.000542507	43	8.9952	2.40215e-07
2	0	0	1	1	7504.57	-0.445518	-0.444655	-0.000581414	3	0.000542197	43	9.5448	2.58529e-07
2	0	0	1	1	7505.12	-0.451015	-0.450157	-0.00061562	3	0.000541868	43	10.0946	2.77125e-07
2	0	0	1	1	7505.67	-0.456512	-0.455658	-0.00065139	3	0.00054152	43	10.6442	2.96811e-07
2	0	0	1	1	7506.01	-0.459935	-0.458994	-0.000671586	3	0.000541296	43	10.9825	3.08254e-07